trial,subtask,trial_in_subtask,psychological_state,choice_correct,rt,chosen_image,was_rewarded,learning_rate,learning_progress
0,0,0,engaged,0,1.0935576036798962,2,False,0.35,0.8131945555144736
1,0,1,engaged,0,2.1297656243843193,2,False,0.35,0.8131945555144736
2,0,2,engaged,1,0.6379683732195676,0,True,0.35,0.92204376892816
3,0,3,engaged,1,1.7045248689063826,0,True,0.35,0.9927957576470561
4,0,4,engaged,1,0.7136588469146564,0,True,0.35,1.0
5,0,5,engaged,1,1.7486092319705648,0,True,0.35,1.0
6,0,6,engaged,1,2.0402816233829846,0,False,0.35,0.6946402226062468
7,0,7,engaged,1,0.7028096284844417,0,False,0.35,0.5866547057514702
8,0,8,engaged,0,1.32324254588056,2,False,0.35,0.5866547057514702
9,0,9,engaged,1,1.362764320646738,0,True,0.35,0.6869528018948913
10,0,10,disengaged,0,0.2,1,False,0.05,0.6869528018948913
11,0,11,disengaged,0,1.2975142499505974,1,True,0.05,0.6869528018948913
12,0,12,disengaged,0,2.569000057335344,2,False,0.05,0.6869528018948913
13,0,13,disengaged,0,0.4422379370951861,1,True,0.05,0.6869528018948913
14,0,14,disengaged,0,0.33438441220290527,2,True,0.05,0.6869528018948913
15,0,15,disengaged,1,2.704361223133143,0,False,0.05,0.6526051618001467
16,0,16,disengaged,1,2.0729265912677532,0,False,0.05,0.6199749037101393
17,0,17,disengaged,1,2.084913110213431,0,True,0.05,0.6451857739308826
18,0,18,disengaged,0,2.8430961221153224,1,True,0.05,0.6451857739308826
19,0,19,disengaged,0,0.4553859372846364,1,True,0.05,0.662472875160422
20,0,20,engaged,0,1.4674136722292301,1,False,0.35,0.6451857739308826
21,0,21,engaged,1,0.891112135458715,0,False,0.35,0.4306073688542743
22,0,22,engaged,0,1.718045631479507,1,False,0.35,0.4193707530550737
23,0,23,engaged,1,1.0377517604841866,0,True,0.35,0.6660582973295499
24,0,24,engaged,1,1.4427137368253147,0,True,0.35,0.8264052011079595
25,0,25,engaged,0,2.2992209381803335,2,False,0.35,0.8264052011079595
26,0,26,engaged,1,4.042577351503925,0,True,0.35,0.9306306885639257
27,0,27,engaged,1,0.5370824548798285,0,True,0.35,0.9983772554103039
28,0,28,engaged,1,0.2,0,True,0.35,1.0
29,0,29,engaged,1,1.4304182363298963,0,False,0.35,0.6775681405092923
30,0,30,engaged,1,0.3037158102894083,0,True,0.35,0.833886599174792
31,0,31,engaged,1,2.3132079050592353,0,True,0.35,0.9354935973073669
32,0,32,engaged,1,0.39363907143523236,0,True,0.35,1.0
33,0,33,engaged,1,0.6734380105796623,0,True,0.35,1.0
34,0,34,engaged,1,1.0884104047979173,0,True,0.35,1.0
35,0,35,engaged,0,1.1123042923240958,2,False,0.35,1.0
36,0,36,engaged,1,0.673429619024101,0,True,0.35,1.0
37,0,37,engaged,0,1.7851884172595027,1,False,0.35,1.0
38,0,38,engaged,0,2.6804943712686518,2,False,0.35,1.0
39,0,39,engaged,0,2.2809918511197074,1,False,0.35,1.0
40,0,40,engaged,1,2.045230895710771,0,True,0.35,1.0
41,0,41,engaged,1,0.9796123412257233,0,True,0.35,1.0
42,0,42,engaged,0,1.410524523693719,1,False,0.35,1.0
43,0,43,engaged,1,2.431470283820346,0,True,0.35,1.0
44,0,44,engaged,1,0.9490046563474561,0,True,0.35,1.0
45,0,45,engaged,0,0.5824732681861285,1,True,0.35,1.0
46,0,46,engaged,1,1.0267053728043194,0,True,0.35,1.0
47,0,47,engaged,1,1.9321482167720214,0,True,0.35,1.0
48,0,48,engaged,0,1.4846500708805568,1,False,0.35,1.0
49,0,49,engaged,0,1.0536304376600159,1,True,0.35,1.0
50,0,50,engaged,0,1.0316253091051775,1,False,0.35,1.0
51,0,51,engaged,0,1.531202123672771,2,False,0.35,1.0
52,0,52,engaged,1,1.4492207008794595,0,True,0.35,1.0
53,0,53,engaged,0,3.1544176440005516,1,False,0.35,1.0
54,0,54,engaged,1,1.812496504620991,0,True,0.35,1.0
55,0,55,engaged,1,0.8810789207649988,0,True,0.35,1.0
56,0,56,engaged,1,1.7197280202795941,0,True,0.35,1.0
57,0,57,engaged,1,0.9248836779908104,0,True,0.35,1.0
58,0,58,engaged,1,0.7760096552359188,0,True,0.35,1.0
59,0,59,engaged,1,0.8419645092246857,0,True,0.35,1.0
60,0,60,engaged,1,0.5804823519271746,0,True,0.35,1.0
61,0,61,engaged,1,0.2,0,True,0.35,1.0
62,0,62,engaged,1,1.0408736388436681,0,True,0.35,1.0
63,0,63,engaged,1,0.5618894424825654,0,True,0.35,1.0
64,0,64,engaged,1,0.9761702476148629,0,True,0.35,1.0
65,0,65,engaged,1,0.25513379446293566,0,True,0.35,1.0
66,0,66,engaged,1,1.0152202618518305,0,True,0.35,1.0
67,0,67,disengaged,0,0.5696768566284538,1,False,0.05,1.0
68,0,68,disengaged,0,0.5694424747799193,2,False,0.05,1.0
69,0,69,disengaged,1,1.8554186721632633,0,True,0.05,1.0
70,0,70,disengaged,0,2.336376228644483,1,True,0.05,1.0
71,0,71,disengaged,0,1.6328205949883845,1,False,0.05,1.0
72,0,72,disengaged,1,1.4514532759534862,0,True,0.05,1.0
73,0,73,disengaged,0,0.8109333175441937,2,False,0.05,1.0
74,0,74,disengaged,0,2.6137724385106007,2,False,0.05,1.0
75,0,75,disengaged,0,1.7753022750417007,2,False,0.05,1.0
76,0,76,disengaged,1,5.0,0,True,0.05,1.0
77,0,77,disengaged,0,0.4249446175618418,2,False,0.05,1.0
78,0,78,disengaged,0,1.2337362569983379,1,True,0.05,1.0
79,0,79,disengaged,0,1.408882634085369,1,False,0.05,1.0
80,0,80,engaged,1,2.7363654895063414,0,True,0.35,1.0
81,0,81,disengaged,1,0.6645470972546632,0,False,0.05,1.0
82,0,82,disengaged,0,0.34865467194964966,1,False,0.05,1.0
83,0,83,engaged,0,0.9400151154722411,1,False,0.35,1.0
84,0,84,engaged,0,3.921999381946072,2,False,0.35,1.0
85,0,85,engaged,1,4.480440102869922,0,False,0.35,0.6941866493418138
86,0,86,engaged,1,0.9468978663780726,0,True,0.35,0.8446886299159311
87,0,87,engaged,1,2.242101009769594,0,True,0.35,0.9425149172891073
88,0,88,engaged,1,1.8578297441004619,0,True,0.35,1.0
89,0,89,engaged,1,0.6270766166511624,0,True,0.35,1.0
90,0,90,engaged,1,0.7232771433592582,0,True,0.35,1.0
91,0,91,engaged,1,1.235831636412126,0,True,0.35,1.0
92,0,92,engaged,1,0.20737249425833293,0,True,0.35,1.0
93,0,93,engaged,1,0.6148398360460614,0,False,0.35,0.7170230930127659
94,0,94,engaged,1,1.218459238418671,0,True,0.35,0.8595323183020499
95,0,95,engaged,0,0.773672940023463,2,False,0.35,0.8595323183020499
96,0,96,engaged,1,1.9628871360459406,0,True,0.35,0.9521633147400844
97,0,97,engaged,1,0.2,0,True,0.35,1.0
98,0,98,engaged,1,0.5776671198784582,0,True,0.35,1.0
99,0,99,engaged,1,1.3855770248433037,0,True,0.35,1.0
100,0,100,engaged,1,2.107834788030061,0,True,0.35,1.0
101,0,101,engaged,1,1.5988055846634512,0,True,0.35,1.0
102,0,102,engaged,1,0.911367949504209,0,True,0.35,1.0
103,0,103,engaged,0,2.1094619360881737,1,False,0.35,1.0
104,0,104,engaged,1,0.36162004811958176,0,True,0.35,1.0
105,0,105,disengaged,0,0.2,2,False,0.05,1.0
106,0,106,disengaged,0,1.6410541597211379,1,False,0.05,1.0
107,0,107,disengaged,0,2.0340583418924396,1,False,0.05,1.0
108,0,108,engaged,1,1.8268841852981281,0,True,0.35,1.0
109,0,109,engaged,1,0.7563999058063715,0,True,0.35,1.0
110,0,110,engaged,1,0.8448876042568905,0,True,0.35,1.0
111,0,111,disengaged,0,0.4873636073443034,1,True,0.05,1.0
112,0,112,disengaged,0,1.6821427023554727,1,True,0.05,1.0
113,0,113,disengaged,0,1.3768910826955687,1,True,0.05,1.0
114,0,114,disengaged,0,1.674149038462192,2,False,0.05,1.0
115,0,115,disengaged,0,1.6851903890900664,1,False,0.05,1.0
116,0,116,disengaged,0,0.7356454764730477,2,False,0.05,1.0
117,0,117,disengaged,1,2.585107459017594,0,True,0.05,1.0
118,0,118,disengaged,0,2.180358380186012,2,False,0.05,1.0
119,0,119,disengaged,0,1.3107102123744059,1,False,0.05,1.0
120,0,120,disengaged,0,3.309483388618614,2,False,0.05,1.0
121,0,121,disengaged,0,2.0369228871642377,2,False,0.05,1.0
122,0,122,engaged,1,1.0615738251639657,0,True,0.35,1.0
123,0,123,engaged,1,2.655344563479247,0,True,0.35,1.0
124,0,124,engaged,1,0.3827060526192382,0,True,0.35,1.0
125,0,125,engaged,0,1.9220727700310887,2,False,0.35,1.0
126,0,126,engaged,0,0.9951269198573844,2,False,0.35,1.0
127,0,127,engaged,0,1.4925114119764866,1,False,0.35,1.0
128,0,128,engaged,1,1.110582680862198,0,True,0.35,1.0
129,0,129,engaged,1,1.055138042255899,0,True,0.35,1.0
130,0,130,engaged,1,0.6591131347539503,0,True,0.35,1.0
131,0,131,engaged,0,0.49576299324388823,1,True,0.35,1.0
132,0,132,disengaged,0,1.2053946595069198,1,False,0.05,1.0
133,0,133,disengaged,1,0.31958189960519084,0,True,0.05,1.0
134,0,134,disengaged,1,4.000921861276474,0,True,0.05,1.0
135,0,135,disengaged,1,5.0,0,False,0.05,1.0
136,0,136,disengaged,1,0.6330533862351712,0,True,0.05,1.0
137,0,137,engaged,1,2.056242984826814,0,True,0.35,1.0
138,0,138,engaged,1,1.119059474879088,0,True,0.35,1.0
139,0,139,engaged,1,0.43066089851231415,0,False,0.35,0.7160231458819593
140,0,140,engaged,0,3.7399457338420485,2,False,0.35,0.7160231458819593
141,0,141,engaged,0,0.3218902658662879,1,False,0.35,0.7160231458819593
142,0,142,engaged,0,1.1555964492645412,2,False,0.35,0.7160231458819593
143,0,143,engaged,1,0.8896959449178808,0,True,0.35,0.8588823526670255
144,0,144,engaged,0,1.34813883742564,1,False,0.35,0.8588823526670255
145,0,145,engaged,1,2.167226800816996,0,True,0.35,0.9517408370773186
146,0,146,engaged,1,0.6003555468921782,0,True,0.35,1.0
147,0,147,engaged,1,1.3210190595973976,0,True,0.35,1.0
148,0,148,disengaged,0,0.3465568323558546,1,False,0.05,1.0
149,0,149,engaged,1,1.4127477482392268,0,True,0.35,1.0
150,0,150,disengaged,0,0.4755609181585834,1,False,0.05,1.0
151,0,151,engaged,1,0.33259211928229454,0,True,0.35,1.0
152,0,152,engaged,1,1.2946198296733489,0,True,0.35,1.0
153,0,153,engaged,1,1.5633717679545358,0,True,0.35,1.0
154,0,154,engaged,1,0.23516187413776746,0,True,0.35,1.0
155,0,155,engaged,1,1.9003388688578635,0,True,0.35,1.0
156,0,156,engaged,1,0.2,0,True,0.35,1.0
157,0,157,engaged,1,1.1694267065071329,0,False,0.35,0.7284033303871351
158,0,158,disengaged,1,2.3796279983151747,0,True,0.05,0.7481927792740287
159,0,159,disengaged,0,0.5542627027914331,2,False,0.05,0.7481927792740287
160,0,160,disengaged,0,3.43201375336985,1,False,0.05,0.7481927792740287
161,0,161,disengaged,0,1.3091499370216677,2,False,0.05,0.7481927792740287
162,0,162,disengaged,0,2.2562877801468386,1,False,0.05,0.7481927792740287
163,0,163,disengaged,0,0.5805658071081239,2,False,0.05,0.7481927792740287
164,0,164,disengaged,0,4.143678229040942,1,True,0.05,0.7481927792740287
165,0,165,engaged,0,1.6979257513126966,1,False,0.35,0.7481927792740287
166,0,166,engaged,1,0.9698268800263831,0,True,0.35,0.8797926143718707
167,0,167,engaged,0,0.2,1,False,0.35,0.8797926143718707
168,0,168,engaged,1,1.4139419528260673,0,True,0.35,0.965332507185468
169,0,169,engaged,1,0.5016647427830274,0,True,0.35,1.0
170,0,170,engaged,0,2.701905976356207,2,False,0.35,1.0
171,0,171,engaged,1,1.5605649606380978,0,True,0.35,1.0
172,0,172,engaged,1,0.2,0,False,0.35,0.6870981274482332
173,0,173,engaged,0,1.2692219267945408,2,False,0.35,0.6870981274482332
174,0,174,engaged,0,1.0097935408530132,1,False,0.35,0.6870981274482332
175,0,175,engaged,1,0.9235294142932389,0,True,0.35,0.8400810906851036
176,0,176,engaged,1,0.5631782578201052,0,True,0.35,0.9395200167890694
177,0,177,engaged,0,1.2513377248678825,2,False,0.35,0.9395200167890694
178,0,178,engaged,1,0.7935577380400801,0,True,0.35,1.0
179,0,179,disengaged,0,3.192926008772851,2,False,0.05,1.0
180,0,180,disengaged,0,2.0463997233526143,2,False,0.05,1.0
181,0,181,disengaged,0,3.1864126439363663,1,True,0.05,1.0
182,0,182,disengaged,0,0.5874156865835269,2,False,0.05,1.0
183,0,183,disengaged,1,0.449829652954326,0,True,0.05,1.0
184,0,184,disengaged,1,0.2364233222314534,0,True,0.05,1.0
185,0,185,disengaged,0,0.9932062148695175,1,True,0.05,1.0
186,0,186,disengaged,1,5.0,0,True,0.05,1.0
187,0,187,disengaged,1,0.8359059367969133,0,True,0.05,1.0
188,0,188,disengaged,0,2.837692666182343,1,False,0.05,1.0
189,0,189,disengaged,0,2.1874301028318293,2,False,0.05,1.0
190,0,190,disengaged,0,0.4716925629995807,2,False,0.05,1.0
191,0,191,disengaged,0,1.1932761804112866,1,False,0.05,1.0
192,0,192,engaged,1,0.8380928994436406,0,True,0.35,1.0
193,0,193,engaged,1,0.8747847052408436,0,True,0.35,1.0
194,0,194,engaged,1,1.950869587762956,0,True,0.35,1.0
195,0,195,engaged,1,1.3257570159509042,0,True,0.35,1.0
196,0,196,engaged,1,0.24317324843444946,0,True,0.35,1.0
197,0,197,engaged,1,0.34059594212990807,0,True,0.35,1.0
198,0,198,disengaged,0,0.23142673535885888,1,False,0.05,1.0
199,0,199,disengaged,0,0.2,1,False,0.05,1.0
200,0,200,disengaged,0,2.86105069787838,1,False,0.05,1.0
201,0,201,disengaged,1,2.1358809184461234,0,True,0.05,1.0
202,0,202,disengaged,0,1.0671317534598528,1,True,0.05,1.0
203,0,203,disengaged,0,2.7350217847976332,1,False,0.05,1.0
204,0,204,disengaged,1,0.7406532079955955,0,True,0.05,1.0
205,0,205,disengaged,0,2.7075857681942805,1,False,0.05,1.0
206,0,206,disengaged,1,4.290736934450235,0,True,0.05,1.0
207,0,207,disengaged,1,0.8919606631397805,0,True,0.05,1.0
208,0,208,disengaged,1,2.4676799599734487,0,True,0.05,1.0
209,0,209,disengaged,0,0.5512519631628354,1,True,0.05,1.0
210,0,210,disengaged,0,1.2705185165320674,1,False,0.05,1.0
211,0,211,disengaged,1,1.8470987089727051,0,True,0.05,1.0
212,0,212,disengaged,0,0.5382257574624981,1,False,0.05,1.0
213,0,213,disengaged,1,0.4521972887114103,0,True,0.05,1.0
214,0,214,disengaged,0,1.938687288536246,1,False,0.05,1.0
215,0,215,disengaged,0,2.775428323798654,1,True,0.05,1.0
216,0,216,disengaged,0,0.459383121415681,2,False,0.05,1.0
217,0,217,disengaged,0,1.004983343012104,1,False,0.05,1.0
218,0,218,disengaged,1,0.5583006099251064,0,True,0.05,1.0
219,0,219,engaged,1,0.5252446075483407,0,True,0.35,1.0
220,0,220,engaged,1,0.4422452996387199,0,True,0.35,1.0
221,0,221,engaged,1,1.2647358885718365,0,True,0.35,1.0
222,0,222,engaged,0,1.638009026478109,2,False,0.35,1.0
223,0,223,engaged,1,4.300598289628394,0,False,0.35,0.7298517636927507
224,0,224,engaged,0,2.65379696307872,1,False,0.35,0.7298517636927507
225,0,225,engaged,1,0.9087115444970959,0,True,0.35,0.86787095424404
226,0,226,engaged,1,0.40885327109842273,0,True,0.35,0.957583428102378
227,0,227,engaged,1,0.9071176301126549,0,True,0.35,1.0
228,0,228,engaged,1,0.7508060803777473,0,True,0.35,1.0
229,0,229,engaged,1,0.5186664698547335,0,True,0.35,1.0
230,0,230,disengaged,0,2.114857637304972,2,False,0.05,1.0
231,0,231,disengaged,0,1.2038758691745313,2,False,0.05,1.0
232,0,232,engaged,0,2.394257343051213,1,False,0.35,1.0
233,0,233,engaged,1,0.6946010365234466,0,True,0.35,1.0
234,0,234,engaged,0,3.4502885497490556,1,True,0.35,1.0
235,0,235,engaged,1,1.1025316872941353,0,False,0.35,0.7113935281280533
236,0,236,engaged,1,1.4947203228000192,0,True,0.35,0.8558731011269867
237,0,237,engaged,1,2.213588947237026,0,True,0.35,0.9497848235762933
238,0,238,engaged,0,1.018276055754916,2,False,0.35,0.9497848235762933
239,0,239,engaged,1,0.2635971560515787,0,True,0.35,1.0
240,0,240,engaged,1,1.5748851718938888,0,True,0.35,1.0
241,0,241,engaged,1,2.24318527270932,0,True,0.35,1.0
242,0,242,engaged,1,0.46099966207494386,0,True,0.35,1.0
243,0,243,engaged,0,0.21995051771871216,1,False,0.35,1.0
244,0,244,engaged,1,1.7160414266348174,0,True,0.35,1.0
245,0,245,engaged,1,0.9740929428777348,0,True,0.35,1.0
246,0,246,engaged,1,0.9314689254596489,0,False,0.35,0.7221751479303694
247,0,247,engaged,1,0.9970164325383399,0,True,0.35,0.8628811539984922
248,0,248,engaged,1,0.36372925671478634,0,True,0.35,0.9543400579427719
249,0,249,engaged,1,1.737081778045536,0,True,0.35,1.0
250,0,250,engaged,1,1.6213144227650185,0,True,0.35,1.0
251,0,251,engaged,1,0.6545780058628022,0,True,0.35,1.0
252,0,252,engaged,1,0.7754256436241151,0,True,0.35,1.0
253,0,253,engaged,1,1.1290980124727021,0,True,0.35,1.0
254,0,254,engaged,1,0.8397971020712357,0,True,0.35,1.0
255,0,255,engaged,1,0.7211477213786287,0,False,0.35,0.7223984558999661
256,0,256,engaged,1,1.2699551525728257,0,True,0.35,0.86302630417873
257,0,257,engaged,1,1.3168997416913266,0,True,0.35,0.9544344055599265
258,0,258,engaged,1,1.552341305994257,0,True,0.35,1.0
259,0,259,engaged,1,3.118558740369005,0,True,0.35,1.0
260,0,260,engaged,1,1.2857741356188856,0,True,0.35,1.0
261,0,261,engaged,0,0.8607839251596138,2,False,0.35,1.0
262,0,262,disengaged,0,1.8935771297188135,2,False,0.05,1.0
263,0,263,disengaged,0,0.5818911512026809,1,False,0.05,1.0
264,0,264,disengaged,0,3.224290034838874,2,False,0.05,1.0
265,0,265,disengaged,0,2.741000085980677,1,False,0.05,1.0
266,0,266,disengaged,0,2.285340702521917,1,False,0.05,1.0
267,0,267,disengaged,0,2.1026882977891352,2,False,0.05,1.0
268,0,268,disengaged,0,1.0554230321977656,1,False,0.05,1.0
269,0,269,disengaged,0,0.40548447484802685,2,False,0.05,1.0
270,0,270,disengaged,1,0.9435754490612583,0,True,0.05,1.0
271,0,271,disengaged,0,2.120065331464235,2,False,0.05,1.0
272,0,272,engaged,1,2.090936484301412,0,True,0.35,1.0
273,0,273,engaged,1,4.565485173767065,0,True,0.35,1.0
274,0,274,engaged,1,1.020175379399388,0,True,0.35,1.0
275,0,275,engaged,1,0.4246309381486235,0,True,0.35,1.0
276,0,276,engaged,1,1.0510775521011615,0,False,0.35,0.725586215146796
277,0,277,disengaged,0,1.9408759034435656,2,False,0.05,0.725586215146796
278,0,278,engaged,1,0.6329395416190197,0,True,0.35,0.8650983476891694
279,0,279,disengaged,0,1.2590344798000763,1,False,0.05,0.8650983476891694
280,0,280,disengaged,0,1.7503256725142062,1,False,0.05,0.8650983476891694
281,0,281,disengaged,1,0.29691524644719125,0,True,0.05,0.8780530457109613
282,0,282,disengaged,1,0.2,0,True,0.05,0.8903600088316634
283,0,283,disengaged,0,0.34271050782374163,1,False,0.05,0.8903600088316634
284,0,284,disengaged,0,0.5314033650391153,2,False,0.05,0.8903600088316634
285,0,285,disengaged,1,3.3907916069535182,0,True,0.05,0.9020516237963305
286,0,286,engaged,1,2.401805684645315,0,True,0.35,0.9798008633113668
287,0,287,engaged,1,2.638857155323055,0,False,0.35,0.6368705611523885
288,0,288,engaged,1,0.5374444400393081,0,True,0.35,0.8074331725928044
289,0,289,engaged,1,1.9597419743679303,0,True,0.35,0.918298870029075
290,0,290,engaged,1,0.8512243332457097,0,True,0.35,0.9903615733626508
291,0,291,engaged,1,1.038480506443368,0,True,0.35,1.0
292,0,292,engaged,1,2.45538245501858,0,True,0.35,1.0
293,0,293,engaged,1,1.265448008057124,0,True,0.35,1.0
294,0,294,engaged,1,1.2876112926712098,0,True,0.35,1.0
295,0,295,engaged,1,1.173540073292353,0,True,0.35,1.0
296,0,296,engaged,1,0.6211078528101913,0,True,0.35,1.0
297,0,297,engaged,1,0.520421736188716,0,False,0.35,0.7241643126755052
298,0,298,engaged,0,0.6941767642493641,2,False,0.35,0.7241643126755052
299,0,299,engaged,1,1.677312260131175,0,True,0.35,0.8641741110828305
300,0,300,engaged,0,1.876087401321389,2,False,0.35,0.8641741110828305
301,0,301,engaged,0,0.30852378671180014,1,False,0.35,0.8641741110828305
302,0,302,engaged,1,0.8909381820202099,0,True,0.35,0.9551804800475918
303,0,303,engaged,1,1.2109473687991303,0,True,0.35,1.0
304,0,304,engaged,1,0.8431045080214575,0,True,0.35,1.0
305,0,305,engaged,1,0.3348000349373717,0,True,0.35,1.0
306,0,306,disengaged,0,0.37343994703272215,1,False,0.05,1.0
307,0,307,disengaged,0,0.3608690524880147,1,False,0.05,1.0
308,0,308,disengaged,0,1.9587328632835188,1,True,0.05,1.0
309,0,309,engaged,1,0.9203565233387989,0,True,0.35,1.0
310,0,310,engaged,1,1.8838950918198862,0,False,0.35,0.7111147163180203
311,0,311,engaged,1,1.8500691945692644,0,True,0.35,0.8556918734504652
312,0,312,disengaged,0,2.8748097662383163,1,True,0.05,0.8556918734504652
313,0,313,disengaged,0,0.3641256805721479,2,False,0.05,0.8556918734504652
314,0,314,disengaged,1,2.586243496014799,0,True,0.05,0.8691168951841922
315,0,315,disengaged,0,1.3355378644605909,2,False,0.05,0.8691168951841922
316,0,316,disengaged,0,0.6227181090443457,1,False,0.05,0.8691168951841922
317,0,317,disengaged,0,1.6004279497355662,1,False,0.05,0.8691168951841922
318,0,318,disengaged,1,0.9419602720918269,0,True,0.05,0.8818706658312329
319,0,319,disengaged,0,3.4223408747212423,2,False,0.05,0.8818706658312329
320,0,320,disengaged,0,0.6144358578861133,1,True,0.05,0.8818706658312329
321,0,321,disengaged,0,0.9013754059309569,2,False,0.05,0.8818706658312329
322,0,322,disengaged,0,1.5495087521985542,1,False,0.05,0.8818706658312329
323,0,323,disengaged,0,1.6184442783265922,2,False,0.05,0.8818706658312329
324,0,324,disengaged,1,1.0350628285364565,0,True,0.05,0.8939867479459216
325,0,325,disengaged,0,1.6933815510988368,2,False,0.05,0.8939867479459216
326,0,326,disengaged,1,0.7786233110222286,0,True,0.05,0.9054970259548758
327,0,327,disengaged,1,0.4590860122685828,0,True,0.05,0.9164317900633823
328,0,328,disengaged,0,0.6282498144181462,1,False,0.05,0.9164317900633823
329,0,329,engaged,1,1.0406842768301992,0,True,0.35,0.9891479713849505
330,0,330,engaged,1,1.5298639626926596,0,True,0.35,1.0
331,0,331,engaged,1,0.4661738273937424,0,True,0.35,1.0
332,0,332,engaged,1,0.2,0,True,0.35,1.0
333,0,333,engaged,1,0.6543291103429846,0,True,0.35,1.0
334,0,334,engaged,1,1.0070860470904173,0,True,0.35,1.0
335,0,335,engaged,1,1.3077307283599018,0,True,0.35,1.0
336,0,336,engaged,0,1.096363805602424,1,True,0.35,1.0
337,0,337,engaged,0,1.8414021418535145,1,False,0.35,1.0
338,0,338,engaged,1,1.307989583228491,0,True,0.35,1.0
339,0,339,engaged,1,1.2121898544536331,0,True,0.35,1.0
340,0,340,engaged,1,0.5386015409747748,0,True,0.35,1.0
341,0,341,engaged,1,0.2,0,True,0.35,1.0
342,0,342,engaged,1,3.4483870112498187,0,True,0.35,1.0
343,0,343,engaged,0,0.31590217191928,1,True,0.35,1.0
344,0,344,engaged,1,1.7187197137741574,0,True,0.35,1.0
345,0,345,engaged,1,1.1377954912148291,0,True,0.35,1.0
346,0,346,engaged,1,1.7875787157940917,0,True,0.35,1.0
347,0,347,engaged,1,0.9150048862241328,0,True,0.35,1.0
348,0,348,engaged,1,0.49129604099426305,0,True,0.35,1.0
349,0,349,engaged,1,1.7256554717810932,0,True,0.35,1.0
350,0,350,engaged,0,1.3506168594240422,1,False,0.35,1.0
351,0,351,engaged,1,1.296340438794753,0,False,0.35,0.7306670685115215
352,0,352,engaged,1,1.1125060764896224,0,True,0.35,0.868400902376241
353,0,353,engaged,1,0.35713866784994025,0,True,0.35,0.9579278943883087
354,0,354,engaged,1,0.593378076662117,0,True,0.35,1.0
355,0,355,engaged,1,0.8460783904268564,0,True,0.35,1.0
356,0,356,engaged,1,1.374014509909517,0,True,0.35,1.0
357,0,357,engaged,1,0.8364679161319297,0,True,0.35,1.0
358,0,358,engaged,0,2.28560648077045,1,False,0.35,1.0
359,0,359,engaged,1,0.9686173537158863,0,False,0.35,0.7114334962282727
360,0,360,engaged,1,0.5793269703716312,0,True,0.35,0.8558990803921293
361,0,361,engaged,1,1.4403396517526812,0,True,0.35,0.949801710098636
362,0,362,engaged,1,1.124261631330459,0,True,0.35,1.0
363,0,363,engaged,1,0.553584956810927,0,False,0.35,0.6570449726151126
364,0,364,engaged,0,1.5318665633857678,1,False,0.35,0.6570449726151126
365,0,365,engaged,1,0.7736798565609702,0,True,0.35,0.8205465400435752
366,0,366,engaged,1,0.3502301256426239,0,True,0.35,0.9268225588720759
367,0,367,engaged,1,2.128958307369919,0,True,0.35,0.9959019711106013
368,0,368,disengaged,0,1.6542523423592865,1,False,0.05,0.9959019711106013
369,0,369,disengaged,1,0.8487661691893944,0,True,0.05,1.0
370,0,370,engaged,0,0.8238297052137183,1,True,0.35,1.0
371,0,371,engaged,1,0.7973020883473907,0,True,0.35,1.0
372,0,372,disengaged,1,0.2,0,True,0.05,1.0
373,0,373,disengaged,1,0.6999664341264271,0,True,0.05,1.0
374,0,374,disengaged,0,0.2,2,False,0.05,1.0
375,0,375,disengaged,0,1.0394646501013214,1,False,0.05,1.0
376,0,376,disengaged,0,0.27614464643820424,1,False,0.05,1.0
377,0,377,disengaged,0,0.3043305746543883,2,False,0.05,1.0
378,0,378,disengaged,0,0.8013035280566669,1,False,0.05,1.0
379,0,379,disengaged,0,1.6842440546688717,2,False,0.05,1.0
380,0,380,disengaged,1,0.28712637602375235,0,True,0.05,1.0
381,0,381,disengaged,1,1.7897810328843569,0,True,0.05,1.0
382,0,382,disengaged,0,0.8537904748648106,1,False,0.05,1.0
383,0,383,disengaged,0,0.4825421580394863,2,False,0.05,1.0
384,0,384,disengaged,0,1.1087113898251006,2,False,0.05,1.0
385,0,385,disengaged,1,0.4676165707645185,0,True,0.05,1.0
386,0,386,disengaged,0,0.8314402576726898,1,False,0.05,1.0
387,0,387,disengaged,1,3.6491415817825192,0,True,0.05,1.0
388,0,388,disengaged,1,0.9001743036953488,0,True,0.05,1.0
389,0,389,disengaged,1,1.5319228378265697,0,True,0.05,1.0
390,0,390,disengaged,0,0.5103864040972826,2,False,0.05,1.0
391,0,391,disengaged,1,0.6322796957926552,0,True,0.05,1.0
392,0,392,engaged,1,0.2947742352314899,0,True,0.35,1.0
393,0,393,disengaged,1,2.487580308701922,0,False,0.05,1.0
394,0,394,disengaged,1,3.407655355774798,0,True,0.05,1.0
395,0,395,engaged,0,1.3972408417314657,2,False,0.35,1.0
396,0,396,engaged,1,1.5403549565557748,0,False,0.35,0.6769777400018249
397,0,397,engaged,0,0.20944944353479308,1,False,0.35,0.6769777400018249
398,0,398,engaged,1,0.576616659308218,0,True,0.35,0.8335028388449381
399,0,399,engaged,1,0.2,0,True,0.35,0.9352441530929618
400,0,400,engaged,1,1.440876706049489,0,True,0.35,1.0
401,0,401,engaged,1,1.5803895658522782,0,True,0.35,1.0
402,0,402,engaged,0,1.034132447688409,2,False,0.35,1.0
403,0,403,engaged,0,1.606891821198136,1,False,0.35,1.0
404,0,404,engaged,1,0.7710773859599119,0,True,0.35,1.0
405,0,405,engaged,1,1.7534882037239543,0,True,0.35,1.0
406,0,406,engaged,1,0.5045026860811053,0,True,0.35,1.0
407,0,407,engaged,1,1.2117314341433871,0,True,0.35,1.0
408,0,408,disengaged,0,0.2,2,False,0.05,1.0
409,0,409,disengaged,1,1.3990211309880611,0,True,0.05,1.0
410,0,410,disengaged,0,1.9762465566149725,1,False,0.05,1.0
411,0,411,disengaged,0,1.106005302600136,1,False,0.05,1.0
412,0,412,disengaged,1,1.1289830660867017,0,True,0.05,1.0
413,0,413,engaged,1,0.5389784649118765,0,True,0.35,1.0
414,0,414,engaged,1,2.0006099041834884,0,True,0.35,1.0
415,0,415,engaged,1,0.2,0,True,0.35,1.0
416,0,416,engaged,1,0.2899397504154984,0,False,0.35,0.7284292564149885
417,0,417,engaged,1,1.809261094937383,0,False,0.35,0.4734790166697425
418,0,418,engaged,1,2.0051283874412866,0,True,0.35,0.7012286686790846
419,0,419,engaged,1,1.1108244572287955,0,True,0.35,0.849265942485157
420,0,420,disengaged,1,0.2,0,True,0.05,0.8630122607671494
421,0,421,disengaged,0,3.253288515831671,2,False,0.05,0.8630122607671494
422,0,422,engaged,0,2.0400751433135715,1,False,0.35,0.8630122607671494
423,0,423,engaged,1,1.3727214627236772,0,True,0.35,0.9544252773423991
424,0,424,engaged,1,0.43945111734487563,0,True,0.35,1.0
425,0,425,engaged,1,0.28660281014618794,0,True,0.35,1.0
426,0,426,engaged,1,0.4019256688264155,0,True,0.35,1.0
427,0,427,engaged,0,0.8340932529994978,1,False,0.35,1.0
428,0,428,engaged,1,1.6794135157893073,0,True,0.35,1.0
429,0,429,engaged,0,0.9393455244266199,2,False,0.35,1.0
430,0,430,disengaged,0,2.1119169956527593,1,False,0.05,1.0
431,0,431,disengaged,1,1.670331056123083,0,True,0.05,1.0
432,0,432,disengaged,0,2.3119972978241496,2,False,0.05,1.0
433,0,433,disengaged,0,1.7591087845972575,1,False,0.05,1.0
434,0,434,disengaged,0,1.699482101356526,2,False,0.05,1.0
435,0,435,disengaged,0,0.8470570206110711,2,False,0.05,1.0
436,0,436,disengaged,0,0.9043177393852602,1,True,0.05,1.0
437,0,437,disengaged,1,1.3437085977180847,0,True,0.05,1.0
438,0,438,disengaged,0,1.8321106505535567,2,False,0.05,1.0
439,0,439,disengaged,1,3.1730244851413927,0,True,0.05,1.0
440,0,440,disengaged,1,0.310018738838826,0,True,0.05,1.0
441,0,441,disengaged,1,0.6466875350631368,0,True,0.05,1.0
442,0,442,disengaged,0,0.8540861778365009,1,False,0.05,1.0
443,0,443,disengaged,0,1.1070951264054274,2,False,0.05,1.0
444,0,444,disengaged,0,0.426248694490083,2,False,0.05,1.0
445,0,445,disengaged,0,2.350829224533049,2,False,0.05,1.0
446,0,446,disengaged,0,3.4396791039327543,1,False,0.05,1.0
447,0,447,engaged,1,3.4793728876931107,0,True,0.35,1.0
448,0,448,engaged,1,1.2037502970752494,0,True,0.35,1.0
449,0,449,engaged,1,1.2872701261575654,0,True,0.35,1.0
450,0,450,engaged,1,0.7000198042320599,0,True,0.35,1.0
451,0,451,engaged,1,2.435250566430694,0,True,0.35,1.0
452,0,452,disengaged,1,1.0356791761167992,0,True,0.05,1.0
453,0,453,disengaged,0,0.6964362390229523,2,False,0.05,1.0
454,0,454,engaged,1,2.8891222772992555,0,True,0.35,1.0
455,0,455,disengaged,0,0.2,2,False,0.05,1.0
456,0,456,disengaged,1,3.0762651454276755,0,True,0.05,1.0
457,0,457,disengaged,1,3.586872801108585,0,True,0.05,1.0
458,0,458,disengaged,0,2.025790625793124,1,False,0.05,1.0
459,0,459,disengaged,0,3.615932305161651,1,False,0.05,1.0
460,0,460,disengaged,0,1.6024440861348315,1,False,0.05,1.0
461,0,461,engaged,1,0.40965703470252396,0,True,0.35,1.0
462,0,462,engaged,1,0.7963986200506689,0,True,0.35,1.0
463,0,463,engaged,1,1.7916777363974534,0,True,0.35,1.0
464,0,464,disengaged,0,3.6806074464476803,1,True,0.05,1.0
465,0,465,disengaged,1,1.654824468511637,0,True,0.05,1.0
466,0,466,disengaged,0,0.9581301627308461,1,False,0.05,1.0
467,0,467,disengaged,0,1.5255807521287086,1,False,0.05,1.0
468,0,468,disengaged,1,0.7774276804392203,0,True,0.05,1.0
469,0,469,disengaged,1,2.1871558636541413,0,True,0.05,1.0
470,0,470,disengaged,1,1.3092465035618812,0,True,0.05,1.0
471,0,471,disengaged,0,4.214347991204478,1,True,0.05,1.0
472,0,472,disengaged,1,2.3122892200863467,0,True,0.05,1.0
473,0,473,disengaged,0,0.7301517816433087,2,False,0.05,1.0
474,0,474,disengaged,0,0.6766451380482326,2,False,0.05,1.0
475,0,475,disengaged,1,0.41444567050830305,0,True,0.05,1.0
476,0,476,disengaged,0,0.3134725339976174,1,False,0.05,1.0
477,0,477,disengaged,1,1.3595158774188367,0,True,0.05,1.0
478,0,478,disengaged,0,1.0427411125325403,2,False,0.05,1.0
479,0,479,disengaged,0,5.0,1,False,0.05,1.0
480,0,480,disengaged,0,1.1320888796903272,1,False,0.05,1.0
481,0,481,disengaged,0,0.9768399805942618,2,False,0.05,1.0
482,0,482,engaged,1,0.41299318032078797,0,True,0.35,1.0
483,0,483,engaged,1,0.8861640190564092,0,True,0.35,1.0
484,0,484,engaged,1,1.7417775398529147,0,True,0.35,1.0
485,0,485,engaged,1,0.35180025101548096,0,True,0.35,1.0
486,0,486,engaged,1,2.9970040548232113,0,True,0.35,1.0
487,0,487,engaged,1,0.8599400310116854,0,True,0.35,1.0
488,0,488,engaged,1,0.34688287894641345,0,False,0.35,0.7307107450402143
489,0,489,engaged,1,2.768760764795495,0,True,0.35,0.8684292921198913
490,0,490,engaged,1,0.6928676218229721,0,True,0.35,0.9579463477216814
491,0,491,engaged,0,0.7195371354018729,2,False,0.35,0.9579463477216814
492,0,492,engaged,1,1.4523400387312566,0,True,0.35,1.0
493,0,493,engaged,0,1.0549306151698412,1,False,0.35,1.0
494,0,494,engaged,1,1.869158301852856,0,True,0.35,1.0
495,0,495,engaged,1,1.6935057216458234,0,True,0.35,1.0
496,0,496,engaged,1,1.8665301209275882,0,True,0.35,1.0
497,0,497,engaged,1,3.6914737256512082,0,True,0.35,1.0
498,0,498,engaged,1,1.8944538094551893,0,True,0.35,1.0
499,0,499,engaged,1,1.7280240533389344,0,True,0.35,1.0
500,0,500,engaged,1,1.1381333508275113,0,True,0.35,1.0
501,0,501,engaged,1,5.0,0,True,0.35,1.0
502,0,502,disengaged,1,5.0,0,True,0.05,1.0
503,0,503,disengaged,0,2.380639226070359,2,False,0.05,1.0
504,0,504,disengaged,0,0.4994448906269454,2,False,0.05,1.0
505,0,505,disengaged,1,0.6647744507450103,0,True,0.05,1.0
506,0,506,disengaged,1,3.4494921070068423,0,True,0.05,1.0
507,0,507,disengaged,1,1.581746106849489,0,True,0.05,1.0
508,0,508,engaged,1,0.34786679897845735,0,False,0.35,0.7289020320982623
509,0,509,engaged,1,0.4220890712753139,0,True,0.35,0.8672536287076225
510,0,510,engaged,1,0.2,0,True,0.35,0.9571821665037067
511,0,511,disengaged,1,0.9658241623546147,0,True,0.05,0.9655326735847716
512,0,512,disengaged,1,1.3522643949582762,0,True,0.05,0.9734656553117833
513,0,513,engaged,1,0.8340704895506341,0,True,0.35,1.0
514,0,514,disengaged,1,1.837641738791548,0,True,0.05,1.0
515,0,515,disengaged,0,0.42941384074370115,2,False,0.05,1.0
516,0,516,disengaged,0,1.1870524537025395,1,True,0.05,1.0
517,0,517,disengaged,0,1.567266175266334,2,False,0.05,1.0
518,0,518,disengaged,0,0.9515227586038253,2,False,0.05,1.0
519,0,519,disengaged,1,2.7618290607728824,0,True,0.05,1.0
520,0,520,disengaged,1,1.7667557189028171,0,True,0.05,1.0
521,0,521,disengaged,1,1.916768683977682,0,True,0.05,1.0
522,0,522,disengaged,1,0.651660167408146,0,True,0.05,1.0
523,0,523,disengaged,1,0.8836239209835963,0,True,0.05,1.0
524,0,524,disengaged,1,5.0,0,True,0.05,1.0
525,0,525,disengaged,0,0.20034546138897819,2,False,0.05,1.0
526,0,526,engaged,0,0.914449558923763,1,False,0.35,1.0
527,0,527,engaged,1,0.692236221267703,0,True,0.35,1.0
528,0,528,engaged,1,1.7377572966845212,0,True,0.35,1.0
529,0,529,engaged,1,1.1758167353880666,0,True,0.35,1.0
530,0,530,engaged,1,0.6215720453610297,0,True,0.35,1.0
531,0,531,engaged,1,1.32961354934189,0,True,0.35,1.0
532,0,532,engaged,1,0.6194783263504638,0,True,0.35,1.0
533,0,533,engaged,1,1.2145291403777647,0,True,0.35,1.0
534,0,534,engaged,1,0.5049484029268101,0,True,0.35,1.0
535,0,535,engaged,1,0.8534507014434157,0,True,0.35,1.0
536,0,536,engaged,1,2.8863111935778076,0,True,0.35,1.0
537,0,537,engaged,1,1.1868555060988686,0,False,0.35,0.7301262915777105
538,0,538,engaged,1,0.9849481834504874,0,True,0.35,0.8680493973692638
539,0,539,engaged,1,1.3961442010737697,0,True,0.35,0.9576994161337734
540,0,540,engaged,1,0.5197390807811305,0,False,0.35,0.6225046204869528
541,0,541,engaged,1,1.0831542355528,0,True,0.35,0.7980953111602713
542,0,542,engaged,1,0.8377416733839904,0,True,0.35,0.9122292600979285
543,0,543,engaged,1,0.2,0,True,0.35,0.9864163269074054
544,0,544,engaged,1,0.4025624721465355,0,True,0.35,1.0
545,0,545,disengaged,0,0.20709374917478054,1,False,0.05,1.0
546,0,546,engaged,1,1.4055641416547806,0,True,0.35,1.0
547,0,547,engaged,1,1.0929257175482547,0,True,0.35,1.0
548,0,548,disengaged,1,1.6179489988236266,0,True,0.05,1.0
549,0,549,disengaged,1,2.7369671539652156,0,True,0.05,1.0
550,0,550,disengaged,0,1.1071967846613073,2,False,0.05,1.0
551,0,551,disengaged,1,3.3793971877759796,0,True,0.05,1.0
552,0,552,disengaged,0,0.8985899101266229,2,False,0.05,1.0
553,0,553,disengaged,1,1.7241050468344847,0,True,0.05,1.0
554,0,554,disengaged,0,0.4167673025889655,2,False,0.05,1.0
555,0,555,disengaged,0,2.8918500954075537,2,False,0.05,1.0
556,0,556,disengaged,0,0.4650843387149919,2,False,0.05,1.0
557,0,557,disengaged,0,1.7958262742188402,1,True,0.05,1.0
558,0,558,disengaged,1,1.208297261445917,0,True,0.05,1.0
559,0,559,disengaged,0,1.670049843705688,2,False,0.05,1.0
560,0,560,disengaged,0,1.403279113435154,1,False,0.05,1.0
561,0,561,engaged,1,0.34903320146796274,0,True,0.35,1.0
562,0,562,engaged,1,1.1378123403644262,0,True,0.35,1.0
563,0,563,disengaged,1,1.084590500384732,0,False,0.05,1.0
564,0,564,disengaged,0,0.8914368291506157,2,False,0.05,1.0
565,0,565,disengaged,0,0.39878019897386235,2,True,0.05,1.0
566,0,566,disengaged,0,2.125790943745655,1,False,0.05,1.0
567,0,567,disengaged,1,1.3920745026434511,0,False,0.05,1.0
568,0,568,disengaged,0,0.867334616818482,2,False,0.05,1.0
569,0,569,disengaged,1,0.37675716017255445,0,True,0.05,1.0
570,0,570,disengaged,0,0.2,1,False,0.05,1.0
571,0,571,disengaged,1,0.24096349451522941,0,False,0.05,0.9589856174378614
572,0,572,disengaged,0,2.0179409438559586,2,False,0.05,0.9589856174378614
573,0,573,disengaged,0,0.2,1,False,0.05,0.9589856174378614
574,0,574,disengaged,0,2.4617021845415255,1,True,0.05,0.9589856174378614
575,0,575,disengaged,0,0.3469055050303809,2,False,0.05,0.9589856174378614
576,0,576,disengaged,0,0.6608103276864933,2,False,0.05,0.9589856174378614
577,0,577,engaged,1,1.5496174163773357,0,True,0.35,1.0
578,0,578,engaged,1,0.3272827889119872,0,True,0.35,1.0
579,0,579,disengaged,0,0.6484833792888249,1,False,0.05,1.0
580,0,580,disengaged,1,0.48712688439214114,0,True,0.05,1.0
581,0,581,disengaged,1,2.6417299557893985,0,False,0.05,1.0
582,0,582,disengaged,1,0.2,0,True,0.05,1.0
583,0,583,disengaged,0,0.9542948652489263,2,False,0.05,1.0
584,0,584,disengaged,1,0.2,0,True,0.05,1.0
585,0,585,disengaged,0,0.47437506004006175,2,False,0.05,1.0
586,0,586,engaged,1,0.9354762252716133,0,True,0.35,1.0
587,0,587,engaged,1,0.929913843740828,0,True,0.35,1.0
588,0,588,engaged,1,0.5028953793552191,0,True,0.35,1.0
589,0,589,engaged,1,0.6183379800906472,0,True,0.35,1.0
590,0,590,engaged,1,2.943630149896761,0,True,0.35,1.0
591,0,591,engaged,1,0.8901564937786238,0,True,0.35,1.0
592,0,592,engaged,1,0.4102087753174165,0,True,0.35,1.0
593,0,593,engaged,0,0.25437900020079257,1,False,0.35,1.0
594,0,594,engaged,1,0.21973170936239433,0,False,0.35,0.7272969692583477
595,0,595,engaged,1,1.668525922793141,0,True,0.35,0.866210337861678
596,0,596,disengaged,0,0.7026261863587616,2,False,0.05,0.866210337861678
597,0,597,engaged,0,1.0751679941357983,2,False,0.35,0.866210337861678
598,0,598,engaged,1,1.5180819996478314,0,True,0.35,0.9565040274538428
599,0,599,engaged,1,1.562245913411565,0,True,0.35,1.0
600,0,600,engaged,1,0.2,0,True,0.35,1.0
601,0,601,engaged,1,0.2,0,True,0.35,1.0
602,0,602,engaged,1,0.4710614354184519,0,True,0.35,1.0
603,0,603,engaged,1,0.2,0,True,0.35,1.0
604,0,604,engaged,1,1.2552324242869917,0,True,0.35,1.0
605,0,605,engaged,1,1.8403245347172068,0,True,0.35,1.0
606,0,606,engaged,1,0.21581998975960806,0,False,0.35,0.7253817001994124
607,0,607,engaged,1,0.4580251744536534,0,False,0.35,0.47149810512961815
608,0,608,engaged,1,1.2915336400828734,0,True,0.35,0.6999410761780038
609,0,609,engaged,1,0.7696940710300384,0,True,0.35,0.8484290073594545
610,0,610,engaged,1,0.6285035723707834,0,True,0.35,0.9449461626273974
611,0,611,engaged,1,1.0547099649382639,0,True,0.35,1.0
612,0,612,engaged,1,1.1788507518709352,0,True,0.35,1.0
613,0,613,engaged,1,1.079958841343482,0,True,0.35,1.0
614,0,614,engaged,0,1.258151926851948,2,False,0.35,1.0
615,0,615,engaged,1,0.8831708764368867,0,False,0.35,0.6987284430215214
616,0,616,engaged,0,0.5324283326502814,2,False,0.35,0.6987284430215214
617,0,617,engaged,0,0.8330927911204963,1,False,0.35,0.6987284430215214
618,0,618,engaged,1,0.6208411208056723,0,True,0.35,0.8476407958077409
619,0,619,engaged,1,0.379882511449721,0,False,0.35,0.5509665172750315
620,0,620,engaged,1,0.3774983278561949,0,True,0.35,0.7515955440725226
621,0,621,engaged,1,0.858760950272299,0,True,0.35,0.8820044114908917
622,0,622,engaged,1,0.8795788889715347,0,True,0.35,0.9667701753128316
623,0,623,engaged,1,0.2116188926448574,0,True,0.35,1.0
624,0,624,disengaged,0,1.0478816232788244,2,False,0.05,1.0
625,0,625,disengaged,1,2.7340103160714797,0,True,0.05,1.0
626,0,626,disengaged,1,0.6948808251495503,0,True,0.05,1.0
627,0,627,disengaged,0,2.264626858648455,1,False,0.05,1.0
628,0,628,disengaged,0,0.612909767321261,1,False,0.05,1.0
629,0,629,disengaged,0,1.1626452445305469,1,True,0.05,1.0
630,0,630,disengaged,0,0.8702781307246144,2,False,0.05,1.0
631,0,631,engaged,1,0.8683247114555734,0,True,0.35,1.0
632,0,632,engaged,1,0.27178580704617616,0,True,0.35,1.0
633,0,633,engaged,0,1.1805229423303352,1,True,0.35,1.0
634,0,634,engaged,0,2.57551678842345,1,True,0.35,1.0
635,0,635,engaged,1,0.41574802743829903,0,True,0.35,1.0
636,0,636,engaged,1,0.9651435931759533,0,True,0.35,1.0
637,0,637,engaged,0,0.5189262185535433,1,False,0.35,1.0
638,0,638,engaged,1,1.1707844274230612,0,True,0.35,1.0
639,0,639,engaged,1,1.5464877948795568,0,False,0.35,0.7237602347713404
640,0,640,engaged,0,1.2821801365572418,1,True,0.35,0.7237602347713404
641,0,641,engaged,0,2.780398831637496,1,False,0.35,0.7237602347713404
642,0,642,engaged,0,1.346016536697239,2,False,0.35,0.7237602347713404
643,0,643,engaged,0,0.9719476036218662,1,True,0.35,0.7237602347713404
644,0,644,engaged,1,0.5809616330483964,0,True,0.35,0.8639114604451233
645,0,645,engaged,1,0.23975267634808764,0,True,0.35,0.9550097571330821
646,0,646,engaged,1,0.31063686508964333,0,True,0.35,1.0
647,0,647,engaged,0,1.4603889981907567,1,False,0.35,1.0
648,0,648,engaged,1,0.7636734376266783,0,True,0.35,1.0
649,0,649,engaged,1,2.0398538657982423,0,True,0.35,1.0
650,0,650,disengaged,1,1.5130867284902743,0,True,0.05,1.0
651,0,651,disengaged,0,0.2,2,False,0.05,1.0
652,0,652,disengaged,0,2.4400081669543487,2,True,0.05,1.0
653,0,653,disengaged,0,0.2,2,False,0.05,1.0
654,0,654,disengaged,1,1.2155490263648356,0,False,0.05,1.0
655,0,655,disengaged,0,0.8201235405976315,2,False,0.05,1.0
656,0,656,disengaged,0,3.0366696950312977,1,False,0.05,1.0
657,0,657,disengaged,1,0.6747086486707334,0,True,0.05,1.0
658,0,658,disengaged,1,2.847609335436432,0,True,0.05,1.0
659,0,659,disengaged,1,5.0,0,True,0.05,1.0
660,0,660,disengaged,1,1.3810278318627016,0,True,0.05,1.0
661,0,661,disengaged,0,1.2205416929631068,1,True,0.05,1.0
662,0,662,disengaged,1,0.5453981191672002,0,True,0.05,1.0
663,0,663,disengaged,0,2.953067532802478,1,False,0.05,1.0
664,0,664,disengaged,1,1.891132812880788,0,False,0.05,0.9958397806837729
665,0,665,disengaged,1,0.8387696399898772,0,True,0.05,1.0
666,0,666,disengaged,0,1.5392044411629697,2,False,0.05,1.0
667,0,667,disengaged,0,1.3506520859768782,2,False,0.05,1.0
668,0,668,disengaged,0,3.859279813441027,2,False,0.05,1.0
669,0,669,disengaged,0,1.4765688990974108,2,False,0.05,1.0
670,0,670,disengaged,0,0.813694581233313,1,False,0.05,1.0
671,0,671,disengaged,0,2.217740267984135,2,False,0.05,1.0
672,0,672,disengaged,0,4.222183375768826,1,False,0.05,1.0
673,0,673,disengaged,0,2.627430791723448,1,False,0.05,1.0
674,0,674,engaged,1,1.3625349765364674,0,False,0.35,0.6514673145862925
675,0,675,engaged,1,0.4153892086013606,0,True,0.35,0.8169210623248421
676,0,676,engaged,1,0.5068523286825805,0,True,0.35,0.9244659983548994
677,0,677,engaged,0,2.992226686767466,1,False,0.35,0.9244659983548994
678,0,678,engaged,1,0.35811662754156387,0,True,0.35,0.9943702067744367
679,0,679,engaged,1,0.4226511553850401,0,True,0.35,1.0
680,0,680,engaged,1,0.6014205187762638,0,True,0.35,1.0
681,0,681,engaged,1,0.48583694914096287,0,True,0.35,1.0
682,0,682,disengaged,0,0.9418677148893537,2,False,0.05,1.0
683,0,683,disengaged,1,0.2,0,True,0.05,1.0
684,0,684,engaged,1,0.7899981644320921,0,True,0.35,1.0
685,0,685,engaged,1,0.8537903834762327,0,True,0.35,1.0
686,0,686,disengaged,0,2.4542870349375545,1,False,0.05,1.0
687,0,687,disengaged,0,1.6086406675369311,2,False,0.05,1.0
688,0,688,disengaged,0,2.099286694893641,2,False,0.05,1.0
689,0,689,disengaged,1,0.5859349501114748,0,True,0.05,1.0
690,0,690,disengaged,0,1.149319549885824,2,False,0.05,1.0
691,0,691,disengaged,0,1.2180520526754375,1,False,0.05,1.0
692,0,692,disengaged,1,1.2792991206438733,0,True,0.05,1.0
693,0,693,disengaged,0,3.1481939519533233,1,True,0.05,1.0
694,0,694,engaged,1,0.29023315266328903,0,True,0.35,1.0
695,0,695,engaged,1,2.2564928751950717,0,True,0.35,1.0
696,0,696,engaged,0,0.7800981084651234,1,True,0.35,1.0
697,0,697,engaged,1,0.8601026522904848,0,True,0.35,1.0
698,0,698,engaged,1,1.089082525099427,0,True,0.35,1.0
699,0,699,engaged,1,1.5598062106843402,0,True,0.35,1.0
700,0,700,engaged,1,3.0679102695389098,0,True,0.35,1.0
701,0,701,engaged,1,0.6621393700563152,0,True,0.35,1.0
702,0,702,engaged,1,0.5043765697547575,0,True,0.35,1.0
703,0,703,disengaged,1,0.9391511705538867,0,True,0.05,1.0
704,0,704,disengaged,0,1.2444494686164929,1,False,0.05,1.0
705,0,705,disengaged,0,0.8766638487299362,1,False,0.05,1.0
706,0,706,disengaged,0,0.2,1,True,0.05,1.0
707,0,707,disengaged,1,0.2,0,False,0.05,1.0
708,0,708,disengaged,1,3.1475415070897568,0,True,0.05,1.0
709,0,709,disengaged,1,1.1566138677026265,0,True,0.05,1.0
710,0,710,disengaged,0,1.7781151079302002,1,False,0.05,1.0
711,0,711,disengaged,0,4.473155256746384,1,False,0.05,1.0
712,0,712,disengaged,0,0.9330658887685205,1,False,0.05,1.0
713,0,713,engaged,1,0.5492533888406015,0,True,0.35,1.0
714,0,714,engaged,1,1.1833097598822993,0,True,0.35,1.0
715,0,715,engaged,1,0.43550997401351416,0,True,0.35,1.0
716,0,716,engaged,1,0.9947023186214015,0,True,0.35,1.0
717,0,717,engaged,1,1.623853432877814,0,True,0.35,1.0
718,0,718,engaged,1,1.2335212243195197,0,True,0.35,1.0
719,0,719,engaged,1,1.1699640319523434,0,True,0.35,1.0
720,0,720,engaged,1,2.6686307702218994,0,False,0.35,0.7290978607728315
721,0,721,engaged,0,0.41609641515471146,1,False,0.35,0.7290978607728315
722,0,722,engaged,1,2.5243087471700614,0,True,0.35,0.8673809173460924
723,0,723,engaged,1,0.3148723784966387,0,False,0.35,0.5637975962749601
724,0,724,disengaged,1,0.6402296825080496,0,False,0.05,0.5356077164612121
725,0,725,disengaged,0,0.2,2,False,0.05,0.5356077164612121
726,0,726,disengaged,1,0.42191898362585467,0,True,0.05,0.5650369460444018
727,0,727,disengaged,0,0.400943564689466,2,False,0.05,0.5650369460444018
728,0,728,disengaged,0,2.5230300888630968,2,False,0.05,0.5650369460444018
729,0,729,engaged,1,1.6380612322807477,0,True,0.35,0.7607413227726131
730,0,730,disengaged,0,0.8573955791868091,2,False,0.05,0.7607413227726131
731,0,731,disengaged,1,3.2920474593488094,0,True,0.05,0.7789138720402328
732,0,732,disengaged,1,0.7045279189926008,0,True,0.05,0.7961777938444714
733,0,733,disengaged,1,2.2510828770241287,0,False,0.05,0.7563689041522479
734,0,734,disengaged,0,0.6507576183817088,1,False,0.05,0.7563689041522479
735,0,735,engaged,0,1.3155333499947326,2,False,0.35,0.7563689041522479
736,0,736,engaged,1,0.26966470779359875,0,True,0.35,0.8851070955427132
737,0,737,engaged,1,0.6171971196004057,0,True,0.35,0.9687869199465157
738,0,738,disengaged,0,1.682449548961562,1,False,0.05,0.9687869199465157
739,0,739,disengaged,0,1.169258993002191,1,False,0.05,0.9687869199465157
740,0,740,disengaged,0,0.6514454550291842,2,False,0.05,0.9687869199465157
741,0,741,disengaged,0,0.3048260494568816,2,False,0.05,0.9687869199465157
742,0,742,disengaged,1,1.1538859115371256,0,True,0.05,0.9765571893554401
743,0,743,disengaged,0,0.8347432848715122,2,False,0.05,0.9765571893554401
744,0,744,disengaged,1,0.26744750274314383,0,True,0.05,0.9839389452939185
745,0,745,disengaged,0,4.04807649977715,1,False,0.05,0.9839389452939185
746,0,746,disengaged,1,1.0146800508897118,0,True,0.05,0.9909516134354728
747,0,747,disengaged,1,2.3187379963642187,0,True,0.05,0.9976136481699495
748,0,748,disengaged,0,4.0940027595375685,1,True,0.05,0.9976136481699495
749,0,749,disengaged,0,1.1470310604658571,1,False,0.05,0.9976136481699495
750,0,750,disengaged,1,3.676956766683968,0,True,0.05,1.0
751,0,751,disengaged,1,0.8641882702273848,0,True,0.05,1.0
752,0,752,disengaged,1,2.1274631540334408,0,False,0.05,0.9594573141397891
753,0,753,engaged,1,1.2104638818658369,0,True,0.35,1.0
754,0,754,engaged,1,0.2,0,True,0.35,1.0
755,0,755,engaged,1,0.2,0,True,0.35,1.0
756,0,756,engaged,1,1.7833026741628306,0,True,0.35,1.0
757,0,757,engaged,1,0.2,0,True,0.35,1.0
758,0,758,engaged,1,1.1894552082113186,0,True,0.35,1.0
759,0,759,disengaged,0,1.2373638945959837,2,True,0.05,1.0
760,0,760,disengaged,1,3.065175025131747,0,True,0.05,1.0
761,0,761,engaged,1,0.9588472761858066,0,True,0.35,1.0
762,0,762,engaged,1,0.2786527406381378,0,True,0.35,1.0
763,0,763,engaged,1,1.6925790251577162,0,True,0.35,1.0
764,0,764,engaged,1,1.074188938960062,0,True,0.35,1.0
765,0,765,engaged,1,0.5726039334745978,0,True,0.35,1.0
766,0,766,engaged,1,0.5303024196683533,0,False,0.35,0.7298348368493951
767,0,767,engaged,1,0.7257235227776477,0,True,0.35,0.8678599517958588
768,0,768,engaged,1,0.23109264761502377,0,True,0.35,0.9575762765110604
769,0,769,engaged,1,0.6815337552762439,0,True,0.35,1.0
770,0,770,engaged,1,1.1017717502438746,0,True,0.35,1.0
771,0,771,engaged,1,0.2383239719769755,0,True,0.35,1.0
772,0,772,engaged,1,0.2,0,True,0.35,1.0
773,0,773,engaged,1,1.1892509548634103,0,True,0.35,1.0
774,0,774,engaged,1,1.2582017664881744,0,True,0.35,1.0
775,0,775,engaged,1,0.5045412319280163,0,True,0.35,1.0
776,0,776,disengaged,0,1.1816001701642727,2,False,0.05,1.0
777,0,777,disengaged,1,2.714597804814541,0,True,0.05,1.0
778,0,778,engaged,1,0.6514090076775801,0,False,0.35,0.7256813235305244
779,0,779,engaged,1,0.9760726140547572,0,True,0.35,0.865160168138593
780,0,780,engaged,1,0.6660785033038515,0,True,0.35,0.9558214171338375
781,0,781,engaged,1,0.4352715299878758,0,True,0.35,1.0
782,0,782,engaged,1,0.5707501952099087,0,True,0.35,1.0
783,0,783,engaged,1,0.5425404207211647,0,True,0.35,1.0
784,0,784,engaged,1,0.23057451302745657,0,True,0.35,1.0
785,0,785,engaged,1,0.23072730100770694,0,True,0.35,1.0
786,0,786,engaged,1,0.2,0,True,0.35,1.0
787,0,787,engaged,1,0.2,0,False,0.35,0.722471075503391
788,0,788,engaged,0,0.2,1,True,0.35,0.722471075503391
789,0,789,engaged,0,0.20272767626421578,1,True,0.35,0.7653558404274423
790,0,790,disengaged,0,1.439013767396526,1,True,0.05,0.7832976638123205
791,0,791,disengaged,1,0.9722968848017275,0,True,0.05,0.7832976638123205
792,0,792,disengaged,0,1.047030949376767,2,False,0.05,0.7832976638123205
793,0,793,disengaged,0,5.0,1,False,0.05,0.7441327806217044
794,0,794,engaged,1,0.2,0,True,0.35,0.8761294469811585
795,0,795,engaged,0,0.27906997068492057,1,False,0.35,0.8761294469811585
796,0,796,disengaged,0,3.2156365840502574,1,False,0.05,0.8761294469811585
797,0,797,disengaged,1,1.342533015336866,0,False,0.05,0.8323229746321006
798,0,798,disengaged,1,0.7600161607575302,0,True,0.05,0.8469164413067458
799,0,799,disengaged,1,0.4471810188318043,0,True,0.05,0.8607802346476588
800,0,800,disengaged,0,0.6640952354179158,2,False,0.05,0.8607802346476588
801,0,801,disengaged,0,0.649815599946842,1,False,0.05,0.8607802346476588
802,0,802,engaged,1,0.42793285794326535,0,True,0.35,0.9529744603647303
803,0,803,engaged,1,0.3596258059168249,0,True,0.35,1.0
804,0,804,engaged,1,0.2,0,False,0.35,0.6583854596025375
805,0,805,engaged,0,0.21264463235521913,1,False,0.35,0.6583854596025375
806,0,806,engaged,1,0.752807162538045,0,True,0.35,0.8214178565854013
807,0,807,engaged,1,0.6357347060670117,0,True,0.35,0.9273889146242629
808,0,808,engaged,1,0.6056080607169542,0,True,0.35,0.996270102349523
809,0,809,engaged,1,1.1586850448288182,0,True,0.35,1.0
810,0,810,engaged,1,1.622126759477445,0,False,0.35,0.6766778683411123
811,0,811,engaged,1,1.6661063916639072,0,True,0.35,0.833307922265475
812,0,812,engaged,1,0.7299605642861455,0,True,0.35,0.9351174573163108
813,0,813,engaged,1,0.8088863931097209,0,True,0.35,1.0
814,0,814,engaged,1,0.6613519338392613,0,True,0.35,1.0
815,0,815,engaged,1,1.8048925946721566,0,True,0.35,1.0
816,0,816,engaged,1,1.187292909456169,0,False,0.35,0.6969739576940842
817,0,817,engaged,0,0.3581120425567098,1,False,0.35,0.6969739576940842
818,0,818,engaged,1,0.36433461804309536,0,True,0.35,0.8465003803449068
819,0,819,engaged,1,0.2972791773679673,0,False,0.35,0.5502252472241894
820,0,820,engaged,1,0.2626679996141515,0,True,0.35,0.7511137185394751
821,0,821,engaged,1,1.5750904769288379,0,True,0.35,0.8816912248944108
822,0,822,engaged,1,2.7694826286636727,0,True,0.35,0.966566604025119
823,0,823,engaged,1,0.5613072162452486,0,True,0.35,1.0
824,0,824,engaged,1,1.0458725455582443,0,True,0.35,1.0
825,0,825,engaged,1,1.290068214141243,0,True,0.35,1.0
826,0,826,engaged,1,0.7257768843195926,0,True,0.35,1.0
827,0,827,engaged,1,0.9331399015611354,0,True,0.35,1.0
828,0,828,engaged,1,0.7520174624800801,0,False,0.35,0.7188370445440557
829,0,829,engaged,1,1.3267333339512717,0,True,0.35,0.8607113867973882
830,0,830,engaged,1,2.1636016529621998,0,True,0.35,0.9529297092620544
831,0,831,engaged,1,1.9833039077781218,0,True,0.35,1.0
832,0,832,engaged,1,0.8809123204041314,0,True,0.35,1.0
833,0,833,disengaged,0,0.9558492929836659,2,False,0.05,1.0
834,0,834,engaged,1,0.8571592548915394,0,True,0.35,1.0
835,0,835,engaged,1,0.2,0,True,0.35,1.0
836,0,836,engaged,1,0.9588589477438048,0,True,0.35,1.0
837,0,837,engaged,1,0.3699671199223307,0,True,0.35,1.0
838,0,838,engaged,1,2.284758748651064,0,True,0.35,1.0
839,0,839,engaged,1,1.5804057141752896,0,True,0.35,1.0
840,0,840,disengaged,0,0.2,1,False,0.05,1.0
841,0,841,disengaged,1,0.6306392138382562,0,True,0.05,1.0
842,0,842,disengaged,1,1.5242531343466772,0,True,0.05,1.0
843,0,843,disengaged,0,2.9296488630288895,2,False,0.05,1.0
844,0,844,disengaged,1,1.1254431175639803,0,True,0.05,1.0
845,0,845,disengaged,0,0.25279497924639144,2,False,0.05,1.0
846,0,846,disengaged,0,2.2731329070720285,2,False,0.05,1.0
847,0,847,disengaged,0,0.30449673915465375,1,False,0.05,1.0
848,0,848,disengaged,1,0.7769846510091573,0,True,0.05,1.0
849,0,849,disengaged,0,5.0,1,False,0.05,1.0
850,0,850,disengaged,1,0.8917917650074629,0,True,0.05,1.0
851,0,851,disengaged,0,0.6800139121877651,2,False,0.05,1.0
852,0,852,engaged,1,1.250920893447166,0,True,0.35,1.0
853,0,853,engaged,1,1.1466361542984174,0,True,0.35,1.0
854,0,854,engaged,1,0.22849513335967328,0,True,0.35,1.0
855,0,855,engaged,1,1.223078858319592,0,True,0.35,1.0
856,0,856,engaged,1,0.8015780514031274,0,False,0.35,0.7302350475388981
857,0,857,engaged,1,0.3657864845829878,0,True,0.35,0.8681200887440358
858,0,858,engaged,1,0.27955143493276113,0,False,0.35,0.5642780576836233
859,0,859,engaged,1,1.1482201554854625,0,True,0.35,0.7602480453381072
860,0,860,engaged,1,0.9929997837260123,0,True,0.35,0.8876285373135216
861,0,861,engaged,1,1.318567479116012,0,True,0.35,0.970425857097541
862,0,862,engaged,1,1.699706573130589,0,True,0.35,1.0
863,0,863,engaged,1,0.631666338540804,0,True,0.35,1.0
864,0,864,engaged,1,0.2,0,True,0.35,1.0
865,0,865,engaged,1,0.2129202907395363,0,True,0.35,1.0
866,0,866,engaged,1,0.4988470337146197,0,True,0.35,1.0
867,0,867,engaged,1,0.6493091756357898,0,True,0.35,1.0
868,0,868,engaged,1,0.2,0,True,0.35,1.0
869,0,869,engaged,1,0.2,0,True,0.35,1.0
870,0,870,engaged,1,0.9506356637913667,0,True,0.35,1.0
871,0,871,engaged,1,0.5778458942277237,0,True,0.35,1.0
872,0,872,engaged,1,0.708118282639114,0,True,0.35,1.0
873,0,873,disengaged,0,3.728973012492638,1,False,0.05,1.0
874,0,874,disengaged,0,2.119142960068848,1,True,0.05,1.0
875,0,875,engaged,1,0.7332095112338426,0,True,0.35,1.0
876,0,876,engaged,1,0.5877056515140368,0,False,0.35,0.730156494052674
877,0,877,engaged,1,0.5956945317536442,0,True,0.35,0.8680690289779902
878,0,878,engaged,1,1.0303290733569972,0,True,0.35,0.9577121766794456
879,0,879,engaged,1,0.49250595328568036,0,True,0.35,1.0
880,0,880,engaged,1,0.4586267846501145,0,True,0.35,1.0
881,0,881,engaged,1,1.1303695963104792,0,True,0.35,1.0
882,0,882,engaged,1,0.5419958795300679,0,True,0.35,1.0
883,0,883,engaged,1,0.24911379483127968,0,True,0.35,1.0
884,0,884,engaged,1,0.8433716084252584,0,True,0.35,1.0
885,0,885,engaged,1,2.240120981335555,0,True,0.35,1.0
886,0,886,engaged,1,0.2,0,True,0.35,1.0
887,0,887,engaged,1,0.21414605035760448,0,False,0.35,0.7272768783095127
888,0,888,engaged,1,1.0615175666103331,0,True,0.35,0.8661972787449352
889,0,889,engaged,1,1.0767311530933181,0,True,0.35,0.9564955390279599
890,0,890,engaged,1,1.3127199943943666,0,True,0.35,1.0
891,0,891,engaged,1,1.0665133862463623,0,True,0.35,1.0
892,0,892,engaged,1,1.2974402503573874,0,True,0.35,1.0
893,0,893,engaged,1,1.5740854627508,0,True,0.35,1.0
894,0,894,engaged,1,1.0682543114293013,0,True,0.35,1.0
895,0,895,engaged,1,1.4962748971914699,0,True,0.35,1.0
896,0,896,engaged,1,1.1599655912135605,0,True,0.35,1.0
897,0,897,engaged,1,0.47560977925364595,0,True,0.35,1.0
898,0,898,engaged,1,0.2,0,True,0.35,1.0
899,0,899,engaged,1,0.7580151991855013,0,True,0.35,1.0
900,0,900,engaged,1,0.4139015807390392,0,True,0.35,1.0
901,0,901,engaged,1,0.731824381218046,0,True,0.35,1.0
902,0,902,engaged,1,0.8153788442908829,0,True,0.35,1.0
903,0,903,engaged,1,0.6980722940888104,0,True,0.35,1.0
904,0,904,engaged,1,0.6776863048757104,0,True,0.35,1.0
905,0,905,engaged,1,0.9644447005825867,0,True,0.35,1.0
906,0,906,engaged,1,0.5060821718021548,0,True,0.35,1.0
907,0,907,engaged,1,2.188666046585567,0,True,0.35,1.0
908,0,908,engaged,1,0.8114558995101709,0,True,0.35,1.0
909,0,909,engaged,1,1.898805951780611,0,True,0.35,1.0
910,0,910,engaged,1,0.2,0,True,0.35,1.0
911,0,911,engaged,1,1.1482508955597908,0,True,0.35,1.0
912,0,912,disengaged,1,1.0482694453160553,0,False,0.05,1.0
913,0,913,disengaged,0,1.6049731541902061,2,False,0.05,1.0
914,0,914,engaged,1,0.30651932841535917,0,True,0.35,1.0
915,0,915,disengaged,0,0.5399798025941741,2,True,0.05,1.0
916,0,916,disengaged,1,0.7905429288037438,0,True,0.05,1.0
917,0,917,disengaged,0,1.1578451089263244,1,True,0.05,1.0
918,0,918,disengaged,0,0.8992888629254167,2,True,0.05,1.0
919,0,919,disengaged,0,2.978931692691121,2,False,0.05,1.0
920,0,920,disengaged,0,1.7055175987080384,2,False,0.05,1.0
921,0,921,disengaged,0,3.1396487259990624,1,False,0.05,1.0
922,0,922,disengaged,0,0.2,1,False,0.05,1.0
923,0,923,disengaged,1,0.8193539370414059,0,True,0.05,1.0
924,0,924,disengaged,1,5.0,0,True,0.05,1.0
925,0,925,disengaged,0,1.4117461343043372,2,False,0.05,1.0
926,0,926,disengaged,0,0.2948538029610657,1,False,0.05,1.0
927,0,927,disengaged,1,1.322480931519202,0,True,0.05,1.0
928,0,928,disengaged,1,1.7583188628746043,0,True,0.05,1.0
929,0,929,disengaged,0,1.7314673628693762,2,False,0.05,1.0
930,0,930,disengaged,1,0.2,0,True,0.05,1.0
931,0,931,disengaged,0,0.8243929034269054,1,True,0.05,1.0
932,0,932,disengaged,0,0.738241770510568,1,False,0.05,1.0
933,0,933,engaged,1,0.32314669646676175,0,True,0.35,1.0
934,0,934,engaged,1,0.2,0,True,0.35,1.0
935,0,935,engaged,1,0.6947174300578497,0,True,0.35,1.0
936,0,936,disengaged,0,1.0378672018441961,1,False,0.05,1.0
937,0,937,disengaged,0,2.0880993409914694,1,False,0.05,1.0
938,0,938,disengaged,0,2.1731343343834717,2,False,0.05,1.0
939,0,939,disengaged,0,0.6663436651612193,2,False,0.05,1.0
940,0,940,disengaged,1,3.727504986577871,0,True,0.05,1.0
941,0,941,engaged,1,0.3378778533304783,0,True,0.35,1.0
942,0,942,engaged,1,0.9538626381767069,0,True,0.35,1.0
943,0,943,engaged,1,0.2,0,True,0.35,1.0
944,0,944,engaged,1,0.8496035981171737,0,True,0.35,1.0
945,0,945,engaged,1,1.506273466931841,0,True,0.35,1.0
946,0,946,engaged,1,0.6680867847796692,0,True,0.35,1.0
947,0,947,engaged,1,0.2,0,True,0.35,1.0
948,0,948,engaged,1,0.6788923230996219,0,True,0.35,1.0
949,0,949,engaged,1,1.3324123657510472,0,True,0.35,1.0
950,0,950,engaged,1,1.1267203565318067,0,True,0.35,1.0
951,0,951,engaged,1,2.153357046515172,0,True,0.35,1.0
952,0,952,engaged,1,0.517254128076116,0,True,0.35,1.0
953,0,953,engaged,1,1.2189425561021383,0,True,0.35,1.0
954,0,954,engaged,1,0.6949883190068153,0,True,0.35,1.0
955,0,955,engaged,1,1.6331830407928516,0,True,0.35,1.0
956,0,956,engaged,1,0.42838947821800705,0,True,0.35,1.0
957,0,957,engaged,1,1.4188353365097042,0,True,0.35,1.0
958,0,958,engaged,1,0.2,0,False,0.35,0.7307219937623128
959,0,959,engaged,1,1.6718681298587055,0,True,0.35,0.8684366037892552
960,0,960,disengaged,0,0.2,2,False,0.05,0.8684366037892552
961,0,961,disengaged,1,1.4396417000996515,0,False,0.05,0.8250147735997925
962,0,962,disengaged,0,0.8342115751680451,1,True,0.05,0.8250147735997925
963,0,963,disengaged,0,2.3149082003130803,2,False,0.05,0.8250147735997925
964,0,964,disengaged,1,0.7413420461770408,0,True,0.05,0.8399736503260532
965,0,965,disengaged,0,4.09061264458539,1,True,0.05,0.8399736503260532
966,0,966,disengaged,0,1.8488985619410285,1,False,0.05,0.8399736503260532
967,0,967,disengaged,0,3.2189120592834297,1,False,0.05,0.8399736503260532
968,0,968,engaged,1,0.3896512428159541,0,True,0.35,0.9394501805556866
969,0,969,engaged,1,1.9922967233131943,0,True,0.35,1.0
970,0,970,engaged,1,0.2,0,True,0.35,1.0
971,0,971,engaged,1,0.4929063430806259,0,True,0.35,1.0
972,0,972,engaged,1,0.29096882775899746,0,True,0.35,1.0
973,0,973,engaged,1,0.3240282411592466,0,True,0.35,1.0
974,0,974,engaged,1,1.0578081337157637,0,True,0.35,1.0
975,0,975,engaged,1,0.9824296043926507,0,True,0.35,1.0
976,0,976,engaged,1,0.9032402996740918,0,True,0.35,1.0
977,0,977,engaged,1,1.1748087046173126,0,True,0.35,1.0
978,0,978,engaged,1,0.5347428923752024,0,True,0.35,1.0
979,0,979,engaged,1,0.7404893458713563,0,True,0.35,1.0
980,0,980,engaged,1,0.37049520617754556,0,True,0.35,1.0
981,0,981,engaged,1,3.0091091520134103,0,False,0.35,0.7300419705988852
982,0,982,engaged,0,3.017013820038767,1,False,0.35,0.7300419705988852
983,0,983,engaged,1,0.7487678091906239,0,True,0.35,0.8679945887330274
984,0,984,engaged,1,0.2,0,True,0.35,0.9576637905202199
985,0,985,disengaged,0,4.065017442601224,2,False,0.05,0.9576637905202199
986,0,986,disengaged,0,3.6754206754458063,1,True,0.05,0.9576637905202199
987,0,987,engaged,1,0.8504511450933908,0,False,0.35,0.622481463838143
988,0,988,engaged,1,0.5776171078904919,0,True,0.35,0.798080259338545
989,0,989,engaged,1,0.2926524490512553,0,True,0.35,0.9122194764138062
990,0,990,engaged,1,0.9231745870732873,0,False,0.35,0.5929426596689741
991,0,991,engaged,1,2.4627541974243896,0,False,0.35,0.3854127287848332
992,0,992,disengaged,0,0.3157715748664759,1,False,0.05,0.3854127287848332
993,0,993,engaged,0,0.8269957878578373,1,True,0.35,0.5340409579154595
994,0,994,engaged,0,0.5583971110916839,1,False,0.35,0.3854127287848332
995,0,995,engaged,1,1.6562199030672624,0,True,0.35,0.6439855815538936
996,0,996,engaged,1,1.3696312832272675,0,False,0.35,0.4185906280100309
997,0,997,engaged,1,0.47358431737563017,0,True,0.35,0.6655512160502721
998,0,998,engaged,1,0.8583489091556323,0,True,0.35,0.826075598276429
999,0,999,engaged,1,0.3476888078151587,0,True,0.35,0.9304164467234308
1000,1,0,engaged,0,0.5412698387070086,2,False,0.42,0.8507367277537647
1001,1,1,engaged,0,2.3787136934431983,0,False,0.42,0.8507367277537647
1002,1,2,engaged,1,0.6815033726542115,1,False,0.42,0.4934273020971836
1003,1,3,engaged,1,1.4520108611215177,1,True,0.42,0.8056929408436645
1004,1,4,engaged,1,0.3030971031616164,1,True,0.42,0.9868070113166236
1005,1,5,engaged,0,0.4178854820294395,2,False,0.42,0.9868070113166236
1006,1,6,engaged,0,0.38147462498901596,2,False,0.42,0.9868070113166236
1007,1,7,engaged,0,2.275802391336212,2,True,0.42,0.9868070113166236
1008,1,8,engaged,1,0.848366182994844,1,True,0.42,1.0
1009,1,9,engaged,0,1.643425120870373,2,False,0.42,1.0
1010,1,10,engaged,1,0.8248300936219058,1,True,0.42,1.0
1011,1,11,engaged,1,1.7299351854353495,1,False,0.42,0.6686123683888652
1012,1,12,engaged,1,0.3522161061815362,1,True,0.42,0.90730027929284
1013,1,13,engaged,0,1.1717813661031482,0,False,0.42,0.90730027929284
1014,1,14,engaged,1,0.224957199477396,1,True,0.42,1.0
1015,1,15,engaged,1,1.7211717157032862,1,True,0.42,1.0
1016,1,16,engaged,1,0.38273504142297105,1,True,0.42,1.0
1017,1,17,engaged,1,0.3339070079422747,1,True,0.42,1.0
1018,1,18,engaged,0,2.260980878374264,2,False,0.42,1.0
1019,1,19,engaged,1,0.2,1,False,0.42,0.6957772013563329
1020,1,20,engaged,0,0.7340667019458113,2,False,0.42,0.6957772013563329
1021,1,21,engaged,0,0.9717473858163934,2,False,0.42,0.6957772013563329
1022,1,22,engaged,1,0.8608604443566554,1,True,0.42,0.9230558824139712
1023,1,23,engaged,1,1.580597416678957,1,True,0.42,1.0
1024,1,24,engaged,1,1.0396828346035862,1,True,0.42,1.0
1025,1,25,engaged,1,0.424285103527586,1,False,0.42,0.6561737581264108
1026,1,26,engaged,0,1.8590182688905335,2,False,0.42,0.6561737581264108
1027,1,27,engaged,1,0.28969558564898706,1,True,0.42,0.9000858853406164
1028,1,28,engaged,1,2.3823698613311772,1,True,0.42,1.0
1029,1,29,engaged,1,0.6733244359312869,1,True,0.42,1.0
1030,1,30,engaged,0,2.6607848272452905,0,True,0.42,1.0
1031,1,31,engaged,1,0.44965559236282293,1,True,0.42,1.0
1032,1,32,disengaged,1,0.6627524039992703,1,True,0.052000000000000005,1.0
1033,1,33,disengaged,1,0.5358483998887987,1,True,0.052000000000000005,1.0
1034,1,34,disengaged,0,1.6086992207408608,0,False,0.052000000000000005,1.0
1035,1,35,disengaged,0,1.3974468161215474,0,False,0.052000000000000005,1.0
1036,1,36,disengaged,0,0.42406952681939897,0,False,0.052000000000000005,1.0
1037,1,37,disengaged,0,0.831217459513229,0,False,0.052000000000000005,1.0
1038,1,38,disengaged,1,0.365461216357926,1,True,0.052000000000000005,1.0
1039,1,39,disengaged,1,1.5120311706520304,1,False,0.052000000000000005,1.0
1040,1,40,disengaged,0,2.8210039033761283,0,False,0.052000000000000005,1.0
1041,1,41,disengaged,0,1.8582494957992897,2,False,0.052000000000000005,1.0
1042,1,42,disengaged,1,1.4349948034773934,1,True,0.052000000000000005,1.0
1043,1,43,disengaged,0,0.36958951864309253,0,False,0.052000000000000005,1.0
1044,1,44,disengaged,0,2.4492235000172777,2,False,0.052000000000000005,1.0
1045,1,45,disengaged,0,0.43966267611762416,0,False,0.052000000000000005,1.0
1046,1,46,disengaged,0,0.4843392889003228,0,False,0.052000000000000005,1.0
1047,1,47,disengaged,0,0.7763826712226535,2,False,0.052000000000000005,1.0
1048,1,48,disengaged,0,2.2226674154330963,0,True,0.052000000000000005,1.0
1049,1,49,disengaged,0,1.8490600622485047,0,False,0.052000000000000005,1.0
1050,1,50,disengaged,0,0.8256606609475902,2,False,0.052000000000000005,1.0
1051,1,51,disengaged,0,0.9360827324025087,0,False,0.052000000000000005,1.0
1052,1,52,disengaged,1,0.2,1,True,0.052000000000000005,1.0
1053,1,53,disengaged,1,1.0351046828137305,1,True,0.052000000000000005,1.0
1054,1,54,disengaged,0,1.1894043408463555,0,False,0.052000000000000005,1.0
1055,1,55,disengaged,1,1.0227314917475974,1,True,0.052000000000000005,1.0
1056,1,56,engaged,1,1.6197747363665855,1,False,0.42,0.6624162583528715
1057,1,57,engaged,1,0.2549115122979728,1,True,0.42,0.9037065354719636
1058,1,58,engaged,1,1.1472043931640241,1,True,0.42,1.0
1059,1,59,engaged,0,1.52594211132287,2,False,0.42,1.0
1060,1,60,engaged,1,1.0628340156739662,1,True,0.42,1.0
1061,1,61,engaged,1,1.0367934481514764,1,True,0.42,1.0
1062,1,62,engaged,0,1.3675841841247498,2,False,0.42,1.0
1063,1,63,engaged,0,1.5665938001120405,0,False,0.42,1.0
1064,1,64,engaged,0,1.2900409983836176,0,False,0.42,1.0
1065,1,65,engaged,1,0.6495832895080733,1,True,0.42,1.0
1066,1,66,engaged,1,0.8385398630445384,1,True,0.42,1.0
1067,1,67,engaged,0,1.9799853446832303,0,False,0.42,1.0
1068,1,68,engaged,1,2.747275270813962,1,False,0.42,0.7047269289219072
1069,1,69,engaged,1,1.2757539611227582,1,True,0.42,0.9282467244020043
1070,1,70,engaged,1,1.4493008357824424,1,True,0.42,1.0
1071,1,71,engaged,1,0.4910933226206886,1,True,0.42,1.0
1072,1,72,engaged,1,5.0,1,True,0.42,1.0
1073,1,73,engaged,1,0.2658244647799188,1,False,0.42,0.6824811624030933
1074,1,74,engaged,1,1.5325418449024686,1,True,0.42,0.9153441798210923
1075,1,75,engaged,0,1.3795624478110746,2,False,0.42,0.9153441798210923
1076,1,76,engaged,1,0.6348294685251911,1,True,0.42,1.0
1077,1,77,engaged,1,1.2185392209718686,1,False,0.42,0.6092347433556484
1078,1,78,engaged,0,0.7487868041841043,0,False,0.42,0.6092347433556484
1079,1,79,engaged,1,1.6478179817021767,1,False,0.42,0.35335615114627605
1080,1,80,engaged,1,1.2502384650467586,1,True,0.42,0.7244516732921381
1081,1,81,engaged,1,0.2,1,True,0.42,0.9396870761367382
1082,1,82,engaged,0,2.5954847051354744,0,False,0.42,0.9396870761367382
1083,1,83,engaged,0,0.9824801034419346,2,False,0.42,0.9396870761367382
1084,1,84,disengaged,1,0.2,1,True,0.052000000000000005,0.95514302792196
1085,1,85,disengaged,0,2.3591111364688477,2,False,0.052000000000000005,0.95514302792196
1086,1,86,disengaged,0,0.9199586032777503,2,False,0.052000000000000005,0.95514302792196
1087,1,87,engaged,1,0.4633317994204802,1,True,0.42,1.0
1088,1,88,engaged,1,1.1469699553758734,1,True,0.42,1.0
1089,1,89,engaged,1,2.3527797479740533,1,True,0.42,1.0
1090,1,90,disengaged,1,1.2610589341859666,1,True,0.052000000000000005,1.0
1091,1,91,disengaged,1,0.5063927765314227,1,False,0.052000000000000005,1.0
1092,1,92,disengaged,0,1.0467527358697977,2,False,0.052000000000000005,1.0
1093,1,93,disengaged,0,1.2133479701391068,0,False,0.052000000000000005,1.0
1094,1,94,disengaged,0,0.9947851562572686,2,True,0.052000000000000005,1.0
1095,1,95,disengaged,0,3.6039253797122206,0,True,0.052000000000000005,1.0
1096,1,96,disengaged,1,2.57050559578583,1,True,0.052000000000000005,1.0
1097,1,97,disengaged,1,2.7783218862018595,1,True,0.052000000000000005,1.0
1098,1,98,disengaged,0,2.010210091773006,0,False,0.052000000000000005,1.0
1099,1,99,disengaged,0,1.4314836619401687,0,False,0.052000000000000005,1.0
1100,1,100,disengaged,0,0.40498509082171,0,False,0.052000000000000005,1.0
1101,1,101,engaged,1,1.4554284717846901,1,True,0.42,1.0
1102,1,102,engaged,1,1.3200900203331172,1,False,0.42,0.6830290605545661
1103,1,103,engaged,0,0.5437531357308508,2,False,0.42,0.6830290605545661
1104,1,104,disengaged,0,1.1393866895056932,2,False,0.052000000000000005,0.6830290605545661
1105,1,105,disengaged,0,5.0,2,False,0.052000000000000005,0.6830290605545661
1106,1,106,disengaged,0,1.120510632345972,0,False,0.052000000000000005,0.6830290605545661
1107,1,107,disengaged,1,2.656745836704277,1,True,0.052000000000000005,0.7118312291500609
1108,1,108,disengaged,1,0.8684164329243342,1,True,0.052000000000000005,0.7391356849785898
1109,1,109,disengaged,0,1.016740611311383,2,False,0.052000000000000005,0.7391356849785898
1110,1,110,engaged,1,1.168314055604437,1,False,0.42,0.42869869728758214
1111,1,111,disengaged,0,0.2,2,True,0.052000000000000005,0.42869869728758214
1112,1,112,disengaged,0,0.9046475821269694,0,False,0.052000000000000005,0.42869869728758214
1113,1,113,disengaged,1,1.6055935047026788,1,False,0.052000000000000005,0.40640636502862787
1114,1,114,disengaged,1,0.6325602125519681,1,True,0.052000000000000005,0.4495929137914714
1115,1,115,disengaged,1,1.2651702746446372,1,True,0.052000000000000005,0.49053376201864707
1116,1,116,disengaged,0,2.1139087544039166,0,False,0.052000000000000005,0.49053376201864707
1117,1,117,engaged,1,0.2,1,True,0.42,0.8040146875981135
1118,1,118,engaged,1,2.3718323688973943,1,True,0.42,0.985833624434204
1119,1,119,engaged,0,0.9205330922111319,2,False,0.42,0.985833624434204
1120,1,120,engaged,1,0.9874893332114688,1,True,0.42,1.0
1121,1,121,engaged,1,0.6491832849820147,1,True,0.42,1.0
1122,1,122,engaged,1,1.2001063391495985,1,True,0.42,1.0
1123,1,123,engaged,1,3.637826646753542,1,True,0.42,1.0
1124,1,124,engaged,1,0.7813353252592808,1,True,0.42,1.0
1125,1,125,engaged,1,0.9974485789226852,1,True,0.42,1.0
1126,1,126,engaged,1,0.4055572505572804,1,False,0.42,0.7118679331600967
1127,1,127,disengaged,1,1.3420745407419745,1,True,0.052000000000000005,0.7391704803801038
1128,1,128,disengaged,1,3.0769587891037418,1,True,0.052000000000000005,0.7650532951446706
1129,1,129,disengaged,0,2.4966856255305716,0,False,0.052000000000000005,0.7650532951446706
1130,1,130,disengaged,0,0.28520925432256433,0,True,0.052000000000000005,0.7650532951446706
1131,1,131,disengaged,0,1.7055382454365808,0,True,0.052000000000000005,0.7650532951446706
1132,1,132,disengaged,1,1.3198449827141743,1,True,0.052000000000000005,0.7895902035414798
1133,1,133,disengaged,1,0.4179506481752848,1,True,0.052000000000000005,0.812851192701655
1134,1,134,disengaged,0,0.6081110000760385,2,False,0.052000000000000005,0.812851192701655
1135,1,135,disengaged,1,0.40407290263302625,1,True,0.052000000000000005,0.8349026104255011
1136,1,136,disengaged,0,0.2,2,False,0.052000000000000005,0.8349026104255011
1137,1,137,disengaged,0,2.171499752122349,2,False,0.052000000000000005,0.8349026104255011
1138,1,138,engaged,1,1.5948207693664502,1,True,0.42,1.0
1139,1,139,disengaged,1,0.2,1,False,0.052000000000000005,0.9515536914510362
1140,1,140,engaged,1,0.21727941373551118,1,True,0.42,1.0
1141,1,141,engaged,0,0.7239325620576912,0,False,0.42,1.0
1142,1,142,engaged,1,1.4369134726253618,1,False,0.42,0.6214156230679615
1143,1,143,engaged,1,0.8227541974840309,1,True,0.42,0.8799261670067158
1144,1,144,engaged,0,1.2758835531822945,2,False,0.42,0.8799261670067158
1145,1,145,engaged,1,1.2743689202047557,1,True,0.42,1.0
1146,1,146,engaged,1,1.5418464488422563,1,False,0.42,0.5973201238448921
1147,1,147,engaged,1,2.335547799494197,1,False,0.42,0.3464456718300374
1148,1,148,engaged,0,0.4534844011800434,2,False,0.42,0.3464456718300374
1149,1,149,engaged,0,0.7509329681044745,2,False,0.42,0.3464456718300374
1150,1,150,engaged,0,1.748454552644363,0,True,0.42,0.579928007715865
1151,1,151,engaged,0,0.5540072631665007,0,True,0.42,0.8558633501024998
1152,1,152,engaged,0,0.6002696795920431,2,False,0.42,0.8558633501024998
1153,1,153,engaged,0,0.48027580182916446,0,False,0.42,0.49640074305944987
1154,1,154,engaged,0,0.3477074053353305,0,True,0.42,0.8074175366017791
1155,1,155,engaged,0,1.3264799463778392,0,False,0.42,0.46830217122903184
1156,1,156,engaged,0,0.8935119963370666,0,True,0.42,0.7911203649401366
1157,1,157,engaged,0,3.679558206570725,0,False,0.42,0.4588498116652792
1158,1,158,engaged,0,3.2758354708144806,0,False,0.42,0.3464456718300374
1159,1,159,engaged,0,0.9194169157833555,0,False,0.42,0.3464456718300374
1160,1,160,engaged,1,4.228652893941759,1,True,0.42,0.7204435952887198
1161,1,161,engaged,0,2.3443998109631585,0,True,0.42,0.7204435952887198
1162,1,162,engaged,0,0.8372447033267064,2,False,0.42,0.7204435952887198
1163,1,163,engaged,1,0.784661078312135,1,True,0.42,0.9373623908947557
1164,1,164,engaged,1,1.894981687214452,1,True,0.42,1.0
1165,1,165,disengaged,1,0.7939589085427087,1,True,0.052000000000000005,1.0
1166,1,166,disengaged,0,1.501117360522759,2,False,0.052000000000000005,1.0
1167,1,167,disengaged,0,1.1100829156627954,2,False,0.052000000000000005,1.0
1168,1,168,disengaged,1,0.9690080778992675,1,False,0.052000000000000005,1.0
1169,1,169,disengaged,0,1.4382933571068952,2,False,0.052000000000000005,1.0
1170,1,170,disengaged,1,1.1295518020787711,1,True,0.052000000000000005,1.0
1171,1,171,disengaged,0,1.7876943212128462,2,True,0.052000000000000005,1.0
1172,1,172,disengaged,1,4.664058458230203,1,True,0.052000000000000005,1.0
1173,1,173,engaged,1,3.179339375831933,1,True,0.42,1.0
1174,1,174,engaged,1,0.6885617009338696,1,True,0.42,1.0
1175,1,175,engaged,1,0.48486016054261166,1,True,0.42,1.0
1176,1,176,engaged,1,0.8641357936374823,1,True,0.42,1.0
1177,1,177,engaged,1,0.2,1,False,0.42,0.7044074120994835
1178,1,178,engaged,1,0.8069613151916799,1,True,0.42,0.9280614046449986
1179,1,179,engaged,0,1.697159639790625,0,False,0.42,0.9280614046449986
1180,1,180,engaged,1,1.698149769069401,1,True,0.42,1.0
1181,1,181,engaged,1,1.7571574814720958,1,True,0.42,1.0
1182,1,182,engaged,1,0.87970854492527,1,True,0.42,1.0
1183,1,183,engaged,1,0.3914554570212815,1,True,0.42,1.0
1184,1,184,engaged,1,1.213428229900378,1,False,0.42,0.6971398718699516
1185,1,185,disengaged,0,0.2,0,False,0.052000000000000005,0.6971398718699516
1186,1,186,engaged,1,1.0489713125760898,1,True,0.42,0.92384623131187
1187,1,187,engaged,0,1.8949590480146206,2,False,0.42,0.92384623131187
1188,1,188,engaged,1,1.1033392029083817,1,False,0.42,0.5358308141608846
1189,1,189,engaged,0,1.5603098617966418,0,False,0.42,0.5358308141608846
1190,1,190,engaged,1,2.3852506298611087,1,True,0.42,0.8302869778406112
1191,1,191,engaged,0,0.21216744581903588,2,False,0.42,0.8302869778406112
1192,1,192,engaged,0,1.4122523159420377,2,False,0.42,0.8302869778406112
1193,1,193,engaged,1,0.6757176178442365,1,False,0.42,0.48156644714755453
1194,1,194,engaged,1,0.7870757631152601,1,True,0.42,0.7988136449728798
1195,1,195,disengaged,1,1.0585254163167868,1,False,0.052000000000000005,0.7572753354342899
1196,1,196,disengaged,1,1.0352589182971053,1,True,0.052000000000000005,0.782216697736039
1197,1,197,disengaged,1,0.8872793044657841,1,False,0.052000000000000005,0.741541429453765
1198,1,198,disengaged,1,4.4799783736696535,1,True,0.052000000000000005,0.7673009548665014
1199,1,199,disengaged,1,0.34999981536345914,1,True,0.052000000000000005,0.7917209849577754
1200,1,200,engaged,1,0.6591899087140396,1,False,0.42,0.45919817127550977
1201,1,201,engaged,0,2.1976757162586127,2,False,0.42,0.45919817127550977
1202,1,202,engaged,1,1.4708398250197035,1,True,0.42,0.7858400449670938
1203,1,203,engaged,0,2.029336026118635,2,False,0.42,0.7858400449670938
1204,1,204,engaged,1,0.9919266429828872,1,False,0.42,0.45578722608091443
1205,1,205,engaged,1,0.2526241907527512,1,True,0.42,0.7838616967542285
1206,1,206,engaged,1,1.7913683472022128,1,False,0.42,0.45463978411745254
1207,1,207,engaged,0,1.7910951985651755,0,False,0.42,0.45463978411745254
1208,1,208,engaged,1,1.5011300737748972,1,True,0.42,0.7831961804154205
1209,1,209,engaged,1,1.0291963900384924,1,True,0.42,0.9737588902682421
1210,1,210,disengaged,1,0.28446103860168587,1,True,0.052000000000000005,0.9874431077186256
1211,1,211,disengaged,0,1.8251533137970342,0,False,0.052000000000000005,0.9874431077186256
1212,1,212,disengaged,0,0.7133249039070513,2,False,0.052000000000000005,0.9874431077186256
1213,1,213,disengaged,0,1.8901798387599873,0,True,0.052000000000000005,0.9874431077186256
1214,1,214,engaged,1,1.0914037163631534,1,True,0.42,1.0
1215,1,215,engaged,1,0.2035079813244122,1,True,0.42,1.0
1216,1,216,engaged,1,1.2758461294420513,1,True,0.42,1.0
1217,1,217,engaged,1,0.8414590836834714,1,True,0.42,1.0
1218,1,218,engaged,1,1.0601862334777472,1,True,0.42,1.0
1219,1,219,disengaged,0,0.5658986034781771,2,False,0.052000000000000005,1.0
1220,1,220,engaged,1,1.3470899939890344,1,True,0.42,1.0
1221,1,221,engaged,1,0.33090332374049125,1,True,0.42,1.0
1222,1,222,disengaged,0,1.7466578364530234,0,False,0.052000000000000005,1.0
1223,1,223,disengaged,0,0.2,2,False,0.052000000000000005,1.0
1224,1,224,disengaged,0,2.343948442521144,0,False,0.052000000000000005,1.0
1225,1,225,disengaged,1,0.7904752612714627,1,True,0.052000000000000005,1.0
1226,1,226,disengaged,0,1.1129780243231358,0,False,0.052000000000000005,1.0
1227,1,227,disengaged,0,1.2897083488977255,2,False,0.052000000000000005,1.0
1228,1,228,disengaged,1,0.2946293158915728,1,False,0.052000000000000005,1.0
1229,1,229,disengaged,0,1.3644485279034775,0,False,0.052000000000000005,1.0
1230,1,230,disengaged,0,1.711043669061862,0,False,0.052000000000000005,1.0
1231,1,231,disengaged,0,1.17479262344522,0,False,0.052000000000000005,1.0
1232,1,232,disengaged,0,1.6536639799423551,2,False,0.052000000000000005,1.0
1233,1,233,disengaged,1,1.7820433983971815,1,False,0.052000000000000005,1.0
1234,1,234,disengaged,1,1.4040593680347522,1,False,0.052000000000000005,1.0
1235,1,235,disengaged,0,0.6276553048765506,0,False,0.052000000000000005,1.0
1236,1,236,disengaged,0,0.32743758718305754,2,False,0.052000000000000005,1.0
1237,1,237,disengaged,0,1.0327893856486965,0,False,0.052000000000000005,1.0
1238,1,238,disengaged,0,3.4758887500525315,2,False,0.052000000000000005,1.0
1239,1,239,disengaged,1,3.078729796823755,1,False,0.052000000000000005,0.9948017285290129
1240,1,240,disengaged,1,0.22811780562280565,1,False,0.052000000000000005,0.9430720386455043
1241,1,241,disengaged,0,3.0152868206755823,0,False,0.052000000000000005,0.9430720386455043
1242,1,242,disengaged,0,0.9243302644746492,2,False,0.052000000000000005,0.9430720386455043
1243,1,243,disengaged,1,2.2606521109437874,1,False,0.052000000000000005,0.894032292635938
1244,1,244,disengaged,1,0.46524930748655424,1,False,0.052000000000000005,0.8475426134188693
1245,1,245,disengaged,0,1.1597706446778575,2,False,0.052000000000000005,0.8475426134188693
1246,1,246,disengaged,1,1.0828694043413187,1,True,0.052000000000000005,0.8677900772654202
1247,1,247,disengaged,0,0.8130076029414521,2,False,0.052000000000000005,0.8677900772654202
1248,1,248,disengaged,1,2.27404963695985,1,False,0.052000000000000005,0.8226649932476184
1249,1,249,disengaged,1,3.729574450644255,1,False,0.052000000000000005,0.7798864135987423
1250,1,250,disengaged,1,0.6125894468972578,1,False,0.052000000000000005,0.7393323200916078
1251,1,251,disengaged,0,1.3787597030265266,0,True,0.052000000000000005,0.7393323200916078
1252,1,252,disengaged,1,0.9678518196112373,1,False,0.052000000000000005,0.700887039446844
1253,1,253,disengaged,1,2.5879872357758105,1,True,0.052000000000000005,0.7287605931399403
1254,1,254,disengaged,0,0.6078249034248865,0,False,0.052000000000000005,0.7287605931399403
1255,1,255,disengaged,0,3.562965117980822,2,False,0.052000000000000005,0.7287605931399403
1256,1,256,disengaged,0,0.2,2,False,0.052000000000000005,0.7287605931399403
1257,1,257,disengaged,0,1.31463707641905,0,True,0.052000000000000005,0.7287605931399403
1258,1,258,disengaged,0,3.50982896336962,2,False,0.052000000000000005,0.7287605931399403
1259,1,259,disengaged,1,1.548217496703689,1,False,0.052000000000000005,0.6908650422966635
1260,1,260,disengaged,1,3.2724356012792146,1,True,0.052000000000000005,0.7192597398415691
1261,1,261,disengaged,0,1.5776093921804955,0,False,0.052000000000000005,0.7192597398415691
1262,1,262,disengaged,0,0.2746502893992722,2,False,0.052000000000000005,0.7192597398415691
1263,1,263,disengaged,0,0.8077027550731604,2,False,0.052000000000000005,0.7192597398415691
1264,1,264,disengaged,1,0.6088698192770406,1,True,0.052000000000000005,0.7461779131141396
1265,1,265,disengaged,0,1.6851396483500944,0,True,0.052000000000000005,0.7461779131141396
1266,1,266,disengaged,0,2.2059722254478333,2,False,0.052000000000000005,0.7461779131141396
1267,1,267,disengaged,0,0.8608464644560277,0,False,0.052000000000000005,0.7461779131141396
1268,1,268,engaged,1,0.30613737616546816,1,False,0.42,0.432783189606201
1269,1,269,engaged,0,0.2172570475793509,2,False,0.42,0.432783189606201
1270,1,270,engaged,0,0.4235252398389821,2,False,0.42,0.432783189606201
1271,1,271,engaged,0,1.492304008287043,2,False,0.42,0.432783189606201
1272,1,272,engaged,1,1.51139816279753,1,True,0.42,0.7705193555988947
1273,1,273,disengaged,1,0.5165792697830206,1,True,0.052000000000000005,0.7947720288520844
1274,1,274,engaged,1,0.9236862355046149,1,True,0.42,0.9804728823615072
1275,1,275,engaged,0,1.9695320975613395,2,True,0.42,0.9804728823615072
1276,1,276,engaged,1,1.2891158277887238,1,True,0.42,1.0
1277,1,277,engaged,0,1.3882719379644164,0,True,0.42,1.0
1278,1,278,engaged,0,0.2384932231644296,2,False,0.42,1.0
1279,1,279,engaged,0,0.9673725664566922,0,True,0.42,1.0
1280,1,280,engaged,1,2.063902230415886,1,True,0.42,1.0
1281,1,281,engaged,0,1.2598911079875925,0,False,0.42,1.0
1282,1,282,engaged,1,2.4383503366824613,1,True,0.42,1.0
1283,1,283,engaged,0,1.6541388406403206,0,False,0.42,1.0
1284,1,284,engaged,0,3.4399462870122752,0,True,0.42,1.0
1285,1,285,engaged,0,0.4528089678585663,0,True,0.42,1.0
1286,1,286,engaged,0,1.4491949391267793,2,False,0.42,1.0
1287,1,287,engaged,1,0.9871906837323614,1,False,0.42,0.9228171373703562
1288,1,288,engaged,1,3.4200285738209377,1,True,0.42,0.9228171373703562
1289,1,289,engaged,0,0.229625658644982,0,False,0.42,0.918772079045428
1290,1,290,engaged,1,0.9601686344495356,1,True,0.42,1.0
1291,1,291,engaged,1,1.226179393118279,1,True,0.42,1.0
1292,1,292,engaged,1,0.7690306142061906,1,False,0.42,0.6553379366835674
1293,1,293,engaged,0,0.2,2,False,0.42,0.6553379366835674
1294,1,294,engaged,1,0.5917480441034146,1,True,0.42,0.8996011089037673
1295,1,295,engaged,1,0.6305599310126603,1,True,0.42,1.0
1296,1,296,engaged,1,1.1023681382025425,1,False,0.42,0.6039387742990603
1297,1,297,engaged,1,1.509747295183721,1,True,0.42,0.869789594720753
1298,1,298,engaged,0,2.2211058058952777,2,False,0.42,0.869789594720753
1299,1,299,disengaged,0,0.8819087092770884,2,False,0.052000000000000005,0.869789594720753
1300,1,300,disengaged,1,0.8324549647740326,1,True,0.052000000000000005,0.888880215539606
1301,1,301,disengaged,0,1.4289649026112186,2,False,0.052000000000000005,0.888880215539606
1302,1,302,disengaged,0,2.133141387702103,2,False,0.052000000000000005,0.888880215539606
1303,1,303,disengaged,0,1.0958097670529214,0,True,0.052000000000000005,0.888880215539606
1304,1,304,disengaged,1,0.8759448372002863,1,False,0.052000000000000005,0.8426584443315464
1305,1,305,disengaged,0,5.0,0,True,0.052000000000000005,0.8426584443315464
1306,1,306,disengaged,1,1.4708300527560496,1,True,0.052000000000000005,0.8631598849706381
1307,1,307,disengaged,1,1.0658122831808696,1,True,0.052000000000000005,0.882595250696497
1308,1,308,disengaged,1,0.5788620728237944,1,True,0.052000000000000005,0.9010199774046114
1309,1,309,disengaged,1,0.9308647079130964,1,True,0.052000000000000005,0.9184866183239038
1310,1,310,disengaged,0,1.250270304825666,0,False,0.052000000000000005,0.9184866183239038
1311,1,311,disengaged,0,0.20785360671885308,0,False,0.052000000000000005,0.9184866183239038
1312,1,312,disengaged,0,1.773932191900214,0,False,0.052000000000000005,0.9184866183239038
1313,1,313,disengaged,0,0.892642758248476,0,False,0.052000000000000005,0.9184866183239038
1314,1,314,disengaged,0,0.2,0,True,0.052000000000000005,0.9184866183239038
1315,1,315,disengaged,1,0.8662265685082574,1,False,0.052000000000000005,0.8707253141710607
1316,1,316,engaged,1,1.4506147836176757,1,True,0.42,1.0
1317,1,317,engaged,0,1.2548312917916888,2,False,0.42,1.0
1318,1,318,engaged,1,0.6543740142648535,1,True,0.42,1.0
1319,1,319,engaged,1,0.2,1,True,0.42,1.0
1320,1,320,engaged,1,0.23695803091333967,1,True,0.42,1.0
1321,1,321,engaged,1,1.1116193783357124,1,False,0.42,0.6933765787666286
1322,1,322,engaged,0,1.4814446091453741,0,False,0.42,0.6933765787666286
1323,1,323,engaged,1,0.44183974820752636,1,True,0.42,0.9216635213119427
1324,1,324,engaged,0,0.8098905642380522,0,False,0.42,0.9216635213119427
1325,1,325,disengaged,1,2.017785388164275,1,True,0.052000000000000005,0.9380566979480538
1326,1,326,engaged,0,2.8577252225183387,0,True,0.42,0.9380566979480538
1327,1,327,engaged,1,0.6413126106000472,1,True,0.42,1.0
1328,1,328,engaged,1,1.2200588290111356,1,True,0.42,1.0
1329,1,329,engaged,1,1.9761250603687117,1,True,0.42,1.0
1330,1,330,engaged,1,0.2,1,True,0.42,1.0
1331,1,331,engaged,1,0.909196966362389,1,True,0.42,1.0
1332,1,332,engaged,1,1.6281492090580687,1,False,0.42,0.7060345946960458
1333,1,333,engaged,0,1.0103447948229491,0,False,0.42,0.7060345946960458
1334,1,334,engaged,0,0.8148953918978494,0,False,0.42,0.7060345946960458
1335,1,335,engaged,1,0.3096436461673536,1,False,0.42,0.40950006492370666
1336,1,336,engaged,1,1.1918518758772596,1,True,0.42,0.757015143283048
1337,1,337,engaged,0,2.4180096902288186,2,False,0.42,0.757015143283048
1338,1,338,engaged,0,2.4081391115707844,2,False,0.42,0.757015143283048
1339,1,339,engaged,1,0.2,1,True,0.42,0.9585738887314659
1340,1,340,engaged,1,0.6651618691503322,1,True,0.42,1.0
1341,1,341,engaged,1,2.1544945395707984,1,True,0.42,1.0
1342,1,342,engaged,1,1.4447830881780017,1,True,0.42,1.0
1343,1,343,engaged,0,0.7973399053929353,0,False,0.42,1.0
1344,1,344,engaged,1,0.3344627306267107,1,False,0.42,0.6859131347413503
1345,1,345,disengaged,0,3.502212020684963,2,False,0.052000000000000005,0.6859131347413503
1346,1,346,disengaged,0,1.2426915452410092,0,False,0.052000000000000005,0.6859131347413503
1347,1,347,disengaged,0,0.8360164097972632,0,True,0.052000000000000005,0.6859131347413503
1348,1,348,disengaged,1,0.8857471319134423,1,True,0.052000000000000005,0.7145653314791323
1349,1,349,disengaged,0,0.5654657334265195,0,False,0.052000000000000005,0.7145653314791323
1350,1,350,disengaged,0,2.8908421357414364,0,False,0.052000000000000005,0.7145653314791323
1351,1,351,disengaged,0,1.4912980109148055,2,False,0.052000000000000005,0.7145653314791323
1352,1,352,engaged,0,0.8709813774866413,0,False,0.42,0.7145653314791323
1353,1,353,engaged,1,0.42713946857243146,1,True,0.42,0.9339529978851948
1354,1,354,disengaged,1,0.5372988807390451,1,True,0.052000000000000005,0.9497071217394969
1355,1,355,disengaged,1,4.945752038563998,1,True,0.052000000000000005,0.9646420311533752
1356,1,356,disengaged,0,2.157813736150056,0,True,0.052000000000000005,0.9646420311533752
1357,1,357,disengaged,0,0.2769308350806938,2,False,0.052000000000000005,0.9646420311533752
1358,1,358,disengaged,0,4.30208546014298,2,False,0.052000000000000005,0.9646420311533752
1359,1,359,disengaged,0,0.6894935115391161,0,False,0.052000000000000005,0.9646420311533752
1360,1,360,disengaged,0,0.534630468798552,2,True,0.052000000000000005,0.9646420311533752
1361,1,361,disengaged,1,0.5777396064541099,1,True,0.052000000000000005,0.9788003252777318
1362,1,362,disengaged,1,3.117813417745354,1,True,0.052000000000000005,0.9922223881076219
1363,1,363,disengaged,0,4.041919257422646,0,False,0.052000000000000005,0.9922223881076219
1364,1,364,disengaged,1,2.5126576551390976,1,True,0.052000000000000005,1.0
1365,1,365,disengaged,0,0.9608002794479533,0,False,0.052000000000000005,1.0
1366,1,366,disengaged,0,1.4567343909551573,0,True,0.052000000000000005,1.0
1367,1,367,disengaged,0,1.4823385298057317,2,False,0.052000000000000005,1.0
1368,1,368,disengaged,0,0.8871234881090694,0,False,0.052000000000000005,1.0
1369,1,369,disengaged,1,0.9343537366002184,1,True,0.052000000000000005,1.0
1370,1,370,disengaged,0,0.8007120051982677,0,True,0.052000000000000005,1.0
1371,1,371,disengaged,0,0.24802119390307095,2,False,0.052000000000000005,1.0
1372,1,372,disengaged,1,4.351449106924901,1,False,0.052000000000000005,0.9641244990321919
1373,1,373,disengaged,1,1.1162563345005752,1,True,0.052000000000000005,0.97830970482685
1374,1,374,disengaged,1,0.2,1,True,0.052000000000000005,0.991757279920186
1375,1,375,disengaged,0,4.693729879608963,2,False,0.052000000000000005,0.991757279920186
1376,1,376,disengaged,0,0.2,2,False,0.052000000000000005,0.991757279920186
1377,1,377,disengaged,1,1.0561236422642193,1,True,0.052000000000000005,1.0
1378,1,378,disengaged,0,1.0150812757414944,0,False,0.052000000000000005,1.0
1379,1,379,disengaged,0,0.4759760047523833,0,False,0.052000000000000005,1.0
1380,1,380,engaged,1,0.6037145002098605,1,True,0.42,1.0
1381,1,381,engaged,1,0.9376725108373365,1,False,0.42,0.6392286387487891
1382,1,382,engaged,0,0.2,0,False,0.42,0.6392286387487891
1383,1,383,engaged,1,1.3802077339376966,1,True,0.42,0.8902577161015959
1384,1,384,engaged,1,0.2217125868581703,1,True,0.42,1.0
1385,1,385,engaged,1,0.2624682737013957,1,True,0.42,1.0
1386,1,386,engaged,1,0.42004041257138447,1,False,0.42,0.6497744423008707
1387,1,387,engaged,0,1.3178542535149498,0,False,0.42,0.6497744423008707
1388,1,388,engaged,1,0.8702563612266454,1,False,0.42,0.37686917653450497
1389,1,389,engaged,0,1.7454091850495974,2,False,0.42,0.37686917653450497
1390,1,390,engaged,1,2.092538251027224,1,True,0.42,0.738089228017311
1391,1,391,engaged,1,0.5578439246600931,1,True,0.42,0.9475968578773385
1392,1,392,engaged,1,1.9094793162606616,1,True,0.42,1.0
1393,1,393,engaged,0,0.748048747080432,2,False,0.42,1.0
1394,1,394,engaged,1,1.524892083045303,1,True,0.42,1.0
1395,1,395,engaged,1,1.4161925173944212,1,True,0.42,1.0
1396,1,396,engaged,1,1.3291590615791644,1,True,0.42,1.0
1397,1,397,engaged,0,0.9905895195504397,2,True,0.42,1.0
1398,1,398,engaged,1,0.4501198020869345,1,True,0.42,1.0
1399,1,399,engaged,1,1.7721434695715022,1,False,0.42,0.7063977761112145
1400,1,400,engaged,0,0.6670857291613597,0,True,0.42,0.7063977761112145
1401,1,401,engaged,0,0.2,0,False,0.42,0.7063977761112145
1402,1,402,engaged,0,3.0540830132512755,2,False,0.42,0.7063977761112145
1403,1,403,engaged,0,1.0859082222557617,2,False,0.42,0.7063977761112145
1404,1,404,engaged,1,1.970864910422507,1,True,0.42,0.9292158157718026
1405,1,405,engaged,1,0.9929707999843242,1,False,0.42,0.5389451731476455
1406,1,406,engaged,0,0.5281941321959387,2,False,0.42,0.5389451731476455
1407,1,407,engaged,1,0.5569837810855521,1,True,0.42,0.8320933060529325
1408,1,408,engaged,1,1.346590098208539,1,True,0.42,1.0
1409,1,409,engaged,0,1.2111212603181056,2,False,0.42,1.0
1410,1,410,engaged,1,0.6435963374234964,1,True,0.42,1.0
1411,1,411,engaged,1,0.3465377912179618,1,True,0.42,1.0
1412,1,412,engaged,0,1.16268747235091,0,False,0.42,1.0
1413,1,413,engaged,1,3.575588652142675,1,True,0.42,1.0
1414,1,414,engaged,1,2.7255625659208214,1,True,0.42,1.0
1415,1,415,engaged,1,0.5843646910544483,1,True,0.42,1.0
1416,1,416,engaged,1,0.6095658677051077,1,False,0.42,0.7084733712710941
1417,1,417,engaged,0,0.4128211293367616,2,False,0.42,0.7084733712710941
1418,1,418,engaged,1,1.774379045206652,1,False,0.42,0.41091455533723453
1419,1,419,engaged,0,0.9650288256880987,0,False,0.42,0.41091455533723453
1420,1,420,engaged,1,1.0382773750759235,1,False,0.42,0.23833044209559603
1421,1,421,engaged,0,0.9294779031009454,0,True,0.42,0.582879465096
1422,1,422,engaged,0,0.6521146728839241,0,False,0.42,0.33807008975568
1423,1,423,engaged,0,0.5514497156763594,0,True,0.42,0.7155857576855926
1424,1,424,engaged,0,0.6925228407383508,0,True,0.42,0.9345448450849418
1425,1,425,engaged,0,1.2559815006714037,0,False,0.42,0.5420360101492663
1426,1,426,engaged,0,0.35245497103390727,0,False,0.42,0.3143808858865744
1427,1,427,engaged,1,0.25755277117655007,1,True,0.42,0.6577367620427438
1428,1,428,disengaged,0,0.46181051709423065,0,False,0.052000000000000005,0.6577367620427438
1429,1,429,disengaged,1,3.5082063759716005,1,False,0.052000000000000005,0.623534450416521
1430,1,430,engaged,0,0.2,0,False,0.42,0.623534450416521
1431,1,431,engaged,1,1.6703440949381585,1,True,0.42,0.8811550868688803
1432,1,432,engaged,1,0.8154578357219949,1,False,0.42,0.5110699503839505
1433,1,433,engaged,0,0.7022855550172155,2,False,0.42,0.5110699503839505
1434,1,434,engaged,1,2.7866152320293067,1,True,0.42,0.8159256768499895
1435,1,435,engaged,0,1.9734408014284708,0,False,0.42,0.8159256768499895
1436,1,436,disengaged,1,0.2483212168317078,1,True,0.052000000000000005,0.8378172213981222
1437,1,437,disengaged,0,3.2143675003424885,2,False,0.052000000000000005,0.8378172213981222
1438,1,438,disengaged,0,0.3292426699950033,0,False,0.052000000000000005,0.8378172213981222
1439,1,439,disengaged,1,0.4448191201496116,1,True,0.052000000000000005,0.8585704056297521
1440,1,440,disengaged,1,1.1178041248602113,1,True,0.052000000000000005,0.878244424281337
1441,1,441,disengaged,0,1.4154414193811677,0,True,0.052000000000000005,0.878244424281337
1442,1,442,engaged,1,1.5803688567091423,1,True,0.42,1.0
1443,1,443,engaged,1,0.2,1,False,0.42,0.5967543855920747
1444,1,444,engaged,0,0.6129119987212643,2,False,0.42,0.5967543855920747
1445,1,445,engaged,1,1.1826593036969775,1,True,0.42,0.8656226492707014
1446,1,446,engaged,1,0.46194209740598086,1,True,0.42,1.0
1447,1,447,engaged,1,0.30723095174834464,1,True,0.42,1.0
1448,1,448,engaged,1,0.7207183391488065,1,True,0.42,1.0
1449,1,449,engaged,1,0.2,1,True,0.42,1.0
1450,1,450,engaged,1,0.3896741651505143,1,True,0.42,1.0
1451,1,451,engaged,1,0.2,1,False,0.42,0.7032771251672306
1452,1,452,engaged,1,0.8103697343735535,1,True,0.42,0.9274058382242918
1453,1,453,engaged,1,1.4959142247585564,1,True,0.42,1.0
1454,1,454,engaged,1,0.6891972784890137,1,True,0.42,1.0
1455,1,455,engaged,1,0.3191938883517186,1,True,0.42,1.0
1456,1,456,engaged,1,1.31759276378199,1,True,0.42,1.0
1457,1,457,engaged,1,0.5331759313974243,1,True,0.42,1.0
1458,1,458,engaged,1,1.4400730500241008,1,True,0.42,1.0
1459,1,459,engaged,1,0.4620190299349953,1,True,0.42,1.0
1460,1,460,engaged,1,0.3079065151278727,1,True,0.42,1.0
1461,1,461,disengaged,0,0.7181197147633647,0,False,0.052000000000000005,1.0
1462,1,462,disengaged,1,0.33094103668324615,1,False,0.052000000000000005,1.0
1463,1,463,disengaged,1,2.210508731911814,1,True,0.052000000000000005,1.0
1464,1,464,disengaged,1,0.9052856543233485,1,True,0.052000000000000005,1.0
1465,1,465,disengaged,1,5.0,1,True,0.052000000000000005,1.0
1466,1,466,disengaged,1,0.4416325359330945,1,True,0.052000000000000005,1.0
1467,1,467,disengaged,0,2.7854189100378894,2,False,0.052000000000000005,1.0
1468,1,468,disengaged,0,0.9052373536114805,0,False,0.052000000000000005,1.0
1469,1,469,disengaged,0,3.9701981486223987,2,False,0.052000000000000005,1.0
1470,1,470,disengaged,1,3.083112892542507,1,False,0.052000000000000005,1.0
1471,1,471,disengaged,1,0.7163869095597422,1,False,0.052000000000000005,1.0
1472,1,472,disengaged,0,1.055071493124788,0,False,0.052000000000000005,1.0
1473,1,473,engaged,1,0.7903397687337015,1,True,0.42,1.0
1474,1,474,disengaged,0,1.7016371678513862,0,True,0.052000000000000005,1.0
1475,1,475,disengaged,0,0.7923700035690727,2,False,0.052000000000000005,1.0
1476,1,476,disengaged,0,1.7350072933986576,2,False,0.052000000000000005,1.0
1477,1,477,disengaged,0,0.5736965480328154,2,False,0.052000000000000005,1.0
1478,1,478,engaged,1,0.36398058010681394,1,True,0.42,1.0
1479,1,479,engaged,1,0.6511017066810317,1,True,0.42,1.0
1480,1,480,engaged,1,1.0439641581667836,1,True,0.42,1.0
1481,1,481,engaged,1,2.1154382954094126,1,True,0.42,1.0
1482,1,482,disengaged,1,1.4194885205410885,1,True,0.052000000000000005,1.0
1483,1,483,disengaged,0,0.28356827012759867,2,False,0.052000000000000005,1.0
1484,1,484,engaged,1,0.3514262223382641,1,True,0.42,1.0
1485,1,485,engaged,1,0.3897935715946475,1,True,0.42,1.0
1486,1,486,engaged,1,0.2,1,True,0.42,1.0
1487,1,487,engaged,1,0.9086709877627254,1,True,0.42,1.0
1488,1,488,engaged,1,0.28078584923682715,1,True,0.42,1.0
1489,1,489,engaged,1,0.5386281539832939,1,True,0.42,1.0
1490,1,490,engaged,1,0.3079845748610359,1,True,0.42,1.0
1491,1,491,engaged,1,0.7076745725790726,1,True,0.42,1.0
1492,1,492,engaged,1,0.283738036701124,1,True,0.42,1.0
1493,1,493,engaged,0,1.600551762415895,0,True,0.42,1.0
1494,1,494,engaged,1,1.4162866795537281,1,True,0.42,1.0
1495,1,495,disengaged,0,1.7674331482750185,0,False,0.052000000000000005,1.0
1496,1,496,disengaged,0,4.74996891691352,2,False,0.052000000000000005,1.0
1497,1,497,disengaged,0,2.8745403213443437,0,True,0.052000000000000005,1.0
1498,1,498,engaged,1,1.4231694017253171,1,False,0.42,0.7173846499260457
1499,1,499,engaged,0,0.7805140571388833,0,False,0.42,0.7173846499260457
1500,1,500,engaged,1,1.9948463459501098,1,True,0.42,0.9355882025844047
1501,1,501,engaged,1,2.3481762980982244,1,True,0.42,1.0
1502,1,502,engaged,0,1.9737246616277262,0,True,0.42,1.0
1503,1,503,engaged,0,1.2508518027525022,0,True,0.42,1.0
1504,1,504,engaged,1,0.29458462105074956,1,True,0.42,1.0
1505,1,505,engaged,1,3.1609946258313606,1,False,0.42,0.9436876390203247
1506,1,506,engaged,0,0.43796604972213016,0,True,0.42,1.0
1507,1,507,engaged,0,0.4912044764823339,0,False,0.42,0.6586189641795043
1508,1,508,engaged,1,1.1577405752889725,1,True,0.42,0.9015041048514106
1509,1,509,engaged,0,1.0530033808056558,0,False,0.42,0.9015041048514106
1510,1,510,engaged,1,2.513735823802096,1,False,0.42,0.5228723808138181
1511,1,511,engaged,1,2.347285142988594,1,False,0.42,0.3588863001575567
1512,1,512,engaged,0,0.954697986914745,0,False,0.42,0.30326598087201456
1513,1,513,engaged,0,0.5464945871764483,0,False,0.42,0.30326598087201456
1514,1,514,engaged,1,1.1826424631488437,1,True,0.42,0.6953993745330665
1515,1,515,engaged,1,1.6524277213979421,1,True,0.42,0.9228367428564768
1516,1,516,engaged,1,0.2639922507973363,1,False,0.42,0.5352453108567565
1517,1,517,engaged,0,1.0693607710336583,0,False,0.42,0.5352453108567565
1518,1,518,engaged,1,1.0509117678172253,1,True,0.42,0.829947385924217
1519,1,519,engaged,1,0.30200596059580165,1,True,0.42,1.0
1520,1,520,engaged,1,1.7934447639105473,1,True,0.42,1.0
1521,1,521,engaged,1,0.6805022929303787,1,True,0.42,1.0
1522,1,522,engaged,0,1.2973593587476306,0,True,0.42,1.0
1523,1,523,engaged,1,1.8688570313432527,1,True,0.42,1.0
1524,1,524,engaged,1,0.5908672328183113,1,True,0.42,1.0
1525,1,525,engaged,1,0.2817631605062675,1,True,0.42,1.0
1526,1,526,engaged,1,1.014076025879361,1,True,0.42,1.0
1527,1,527,engaged,1,0.6553130210058458,1,False,0.42,0.7122000352865873
1528,1,528,engaged,1,0.8024216260544068,1,True,0.42,0.9325811260935186
1529,1,529,engaged,0,0.3992093471151985,0,True,0.42,0.9325811260935186
1530,1,530,disengaged,1,1.1419227949257822,1,True,0.052000000000000005,0.9484065872809879
1531,1,531,disengaged,0,2.7775149395964527,2,False,0.052000000000000005,0.9484065872809879
1532,1,532,disengaged,1,0.879912994437525,1,False,0.052000000000000005,0.8990894447423765
1533,1,533,disengaged,0,0.7841436058663709,0,True,0.052000000000000005,0.8990894447423765
1534,1,534,disengaged,0,5.0,2,False,0.052000000000000005,0.8990894447423765
1535,1,535,disengaged,0,2.2632195716230092,0,True,0.052000000000000005,0.8990894447423765
1536,1,536,disengaged,0,0.9346895804360561,0,True,0.052000000000000005,0.9024814216668725
1537,1,537,disengaged,1,0.9280361607841822,1,True,0.052000000000000005,0.916656473360105
1538,1,538,disengaged,0,2.445138398699156,2,True,0.052000000000000005,0.916656473360105
1539,1,539,engaged,0,0.6468158957206779,0,True,0.42,1.0
1540,1,540,disengaged,0,0.7243970136511013,2,False,0.052000000000000005,1.0
1541,1,541,disengaged,0,0.3068756472015644,0,False,0.052000000000000005,0.9887112250239918
1542,1,542,disengaged,0,3.398621302612231,2,True,0.052000000000000005,0.9887112250239918
1543,1,543,engaged,0,1.4328468736494444,0,False,0.42,0.916656473360105
1544,1,544,engaged,0,1.5137433758306518,0,False,0.42,0.916656473360105
1545,1,545,engaged,1,3.3372166148931646,1,False,0.42,0.531660754548861
1546,1,546,engaged,0,2.387289396895446,0,True,0.42,0.7124145301641792
1547,1,547,engaged,0,1.898649711804698,0,False,0.42,0.531660754548861
1548,1,548,engaged,0,1.2094633727081754,0,False,0.42,0.531660754548861
1549,1,549,engaged,1,0.37425364467811906,1,True,0.42,0.8278683432656375
1550,1,550,engaged,1,1.6514447240337295,1,False,0.42,0.4801636390940698
1551,1,551,engaged,1,1.0191985349678352,1,True,0.42,0.7980000163018587
1552,1,552,engaged,0,0.3814828952359072,2,False,0.42,0.7980000163018587
1553,1,553,engaged,0,1.0831835471614872,2,False,0.42,0.7980000163018587
1554,1,554,engaged,1,0.7241192919749797,1,True,0.42,0.9823451150823761
1555,1,555,engaged,0,1.6653540472904251,0,False,0.42,0.9823451150823761
1556,1,556,engaged,1,0.6301796091232293,1,True,0.42,1.0
1557,1,557,engaged,1,0.7006871280746785,1,False,0.42,0.6317738579775443
1558,1,558,engaged,1,0.24163947118543314,1,False,0.42,0.36642883762697565
1559,1,559,engaged,1,0.2,1,False,0.42,0.2125287258236459
1560,1,560,engaged,0,0.3436838291608187,0,False,0.42,0.2125287258236459
1561,1,561,engaged,1,0.2,1,True,0.42,0.6427717666050128
1562,1,562,engaged,1,0.5367885073470267,1,True,0.42,0.8923127302582056
1563,1,563,engaged,1,0.43894873956542074,1,True,0.42,1.0
